"Time (s)","Acceleration x (m/s^2)","Acceleration y (m/s^2)","Acceleration z (m/s^2)"
0.000000000E0,-9.187796712E-1,1.051640606E1,2.131921530E0
4.964063000E-3,-6.890703440E-1,1.059297276E1,2.275487661E0
9.926563000E-3,-4.354382753E-1,1.060972309E1,2.481273890E0
1.489062500E-2,-2.990453839E-1,1.055708885E1,2.371207714E0
1.985312500E-2,-6.933607906E-2,1.053555107E1,2.419063091E0
2.481562500E-2,8.620083332E-2,1.051640606E1,2.227632284E0
2.977968800E-2,9.576806426E-2,1.051640606E1,2.052960873E0
3.474218800E-2,8.380663395E-2,1.044701290E1,1.741896629E0
3.970625000E-2,3.355713189E-2,1.037284088E1,1.409294248E0
4.466875000E-2,-1.669237576E-2,1.041830158E1,1.098220348E0
4.963281300E-2,4.073973373E-2,1.033215809E1,6.699072123E-1
5.459531300E-2,-5.736507475E-2,1.029865837E1,3.444873095E-1
5.955781300E-2,-1.195855886E-1,1.031540775E1,1.937388033E-1
6.452187500E-2,-1.985463500E-1,1.033455276E1,1.530565321E-1
6.948437500E-2,-3.038241863E-1,1.029148579E1,2.624044940E-2
7.444843800E-2,-3.110068142E-1,1.022687149E1,2.624044940E-2
7.941093800E-2,-3.301508427E-1,1.019337082E1,-3.836468980E-2
8.437500000E-2,-3.014395833E-1,1.001391125E1,3.820187971E-2
8.933750000E-2,-3.038241863E-1,9.949306488E0,1.188481692E-2
9.430000000E-2,-3.205740452E-1,9.865556717E0,4.702212289E-3
9.926406300E-2,-3.804003298E-1,9.860768318E0,7.409575582E-2
1.042265630E-1,-3.421122730E-1,9.822490692E0,-7.259219419E-3
1.091906250E-1,-3.301508427E-1,9.738740921E0,-4.075888917E-2
1.141531250E-1,-3.636505008E-1,9.714808464E0,-2.470816020E-3
1.191171880E-1,-3.732177317E-1,9.686098099E0,6.213432178E-2
1.240796880E-1,-3.971501887E-1,9.700452805E0,1.147780269E-1
1.290421880E-1,-4.234672487E-1,9.669347763E0,6.930734962E-2
1.340062500E-1,-4.402170777E-1,9.659780502E0,6.691315025E-2
1.389687500E-1,-4.162942171E-1,9.662164688E0,5.255751312E-2
1.439328130E-1,-4.617553055E-1,9.609530449E0,4.702212289E-3
1.488953130E-1,-5.239662528E-1,9.592781067E0,-3.358586133E-2
1.538593750E-1,-5.670427084E-1,9.580809593E0,1.427901909E-2
1.588218750E-1,-5.694273710E-1,9.547310829E0,-8.619125583E-5
1.637843750E-1,-6.460034847E-1,9.485099792E0,2.145204693E-2
1.687484380E-1,-5.598601103E-1,9.523387909E0,3.102885373E-2
1.737109380E-1,-5.981481671E-1,9.535348892E0,3.102885373E-2
1.786750000E-1,-6.244652867E-1,9.499455452E0,1.937388033E-1
1.836375000E-1,-6.579648852E-1,9.494675636E0,2.104886323E-1
1.886000000E-1,-6.890703440E-1,9.492281914E0,2.104886323E-1
1.935640630E-1,-7.058202624E-1,9.458782196E0,2.798821628E-1
1.985265630E-1,-7.058202624E-1,9.497060776E0,2.511613369E-1
2.034906250E-1,-7.321468592E-1,9.542531013E0,3.109876513E-1
2.084531250E-1,-7.010414004E-1,9.439639091E0,3.109876513E-1
2.134156250E-1,-7.512909174E-1,9.501849174E0,3.253432810E-1
2.183796880E-1,-7.536755204E-1,9.499455452E0,2.942378223E-1
2.233437500E-1,-7.704253793E-1,9.544916153E0,3.085934520E-1
2.283046880E-1,-7.393198609E-1,9.573637009E0,1.458835006E-1
2.332687500E-1,-7.943577766E-1,9.520993233E0,1.482776999E-1
2.382328130E-1,-8.422131538E-1,9.537743568E0,8.605717868E-2
2.431953130E-1,-9.163950682E-1,9.583204269E0,6.691315025E-2
2.481578130E-1,-8.805012107E-1,9.597559929E0,1.339124888E-1
2.531203130E-1,-9.020298719E-1,9.647809982E0,1.650275439E-1
2.580843750E-1,-9.044240713E-1,9.690885544E0,1.722005606E-1
2.630484380E-1,-8.446072936E-1,9.647809982E0,2.870551944E-1
2.680109380E-1,-7.153970599E-1,9.686098099E0,3.612371385E-1
2.729750000E-1,-6.771089435E-1,9.719596863E0,4.856590331E-1
2.779375000E-1,-6.483976841E-1,9.700452805E0,4.880532324E-1
2.829000000E-1,-5.766099691E-1,9.729164124E0,5.287354589E-1
2.878640630E-1,-5.933598280E-1,9.695664406E0,5.000146627E-1
2.928265630E-1,-5.383219123E-1,9.714808464E0,3.803811967E-1
2.977906250E-1,-5.024375916E-1,9.729164124E0,3.827657998E-1
3.027531250E-1,-5.359276533E-1,9.738740921E0,2.487671375E-1
3.077171880E-1,-5.191778541E-1,9.726778984E0,3.277374804E-1
3.126796880E-1,-4.569669068E-1,9.729164124E0,2.583439350E-1
3.176437500E-1,-3.540737033E-1,9.707635880E0,1.913446039E-1
3.226062500E-1,-3.588621020E-1,9.743529320E0,2.439883053E-1
3.275687500E-1,-3.684388995E-1,9.748308182E0,2.128828466E-1
3.325328130E-1,-3.780061305E-1,9.741134644E0,2.033060342E-1
3.374953130E-1,-4.306498468E-1,9.753096581E0,1.626333296E-1
3.424593750E-1,-3.516891003E-1,9.769846916E0,2.128828466E-1
3.474218750E-1,-4.569669068E-1,9.753096581E0,2.391999066E-1
3.523843750E-1,-4.665437341E-1,9.827268600E0,3.947368264E-1
3.573484380E-1,-4.856877327E-1,9.867951393E0,4.114866555E-1
3.623109380E-1,-4.761109650E-1,9.865556717E0,4.689091742E-1
3.672734380E-1,-4.952549636E-1,9.844018936E0,5.406969786E-1
3.722375000E-1,-4.689379334E-1,9.848807335E0,6.459843516E-1
3.772000000E-1,-4.928607643E-1,9.841633797E0,5.813696384E-1
3.821640630E-1,-4.952549636E-1,9.822490692E0,5.550525784E-1
3.871265630E-1,-4.617553055E-1,9.824884415E0,5.454853773E-1
3.920906250E-1,-4.282556474E-1,9.800951958E0,4.928416312E-1
3.970531250E-1,-5.239662528E-1,9.834450722E0,4.784860015E-1
4.020156250E-1,-5.120047927E-1,9.810519218E0,4.952358305E-1
4.069796880E-1,-5.622543097E-1,9.889489174E0,5.454853773E-1
4.119421880E-1,-6.196768880E-1,9.844018936E0,4.808706343E-1
4.169062500E-1,-6.029270291E-1,9.875133514E0,5.765908360E-1
4.218687500E-1,-6.795032024E-1,9.889489174E0,5.430911183E-1
4.268312500E-1,-6.483976841E-1,9.851201057E0,5.765908360E-1
4.317953130E-1,-6.771089435E-1,9.894268990E0,6.794840097E-1
4.367578130E-1,-6.866762042E-1,9.891883850E0,6.316191554E-1
4.417218750E-1,-7.393198609E-1,9.927767754E0,6.316191554E-1
4.466843750E-1,-6.866762042E-1,9.930162430E0,6.818686724E-1
4.516484380E-1,-7.225700617E-1,9.879913330E0,7.871560454E-1
4.566109380E-1,-6.866762042E-1,9.894268990E0,8.254441619E-1
4.615734380E-1,-6.531764865E-1,9.913412094E0,8.541554213E-1
4.665375000E-1,-6.005424261E-1,9.951700211E0,8.541554213E-1
4.715000000E-1,-6.077154279E-1,9.985199928E0,8.254441619E-1
4.764625000E-1,-6.268594265E-1,9.966055870E0,8.134731650E-1
4.814265630E-1,-6.220710278E-1,9.932557106E0,6.675130129E-1
4.863890630E-1,-6.029270291E-1,9.901451111E0,6.746956110E-1
4.913531250E-1,-6.101096272E-1,9.922988892E0,7.440891862E-1
4.963156250E-1,-5.646485090E-1,9.927767754E0,6.364075541E-1
5.012796880E-1,-5.933598280E-1,9.891883850E0,6.268403530E-1
5.062421880E-1,-5.455045104E-1,9.855990410E0,5.000146627E-1
5.112046880E-1,-5.766099691E-1,9.913412094E0,4.449863136E-1
5.161687500E-1,-5.885714293E-1,9.915806770E0,4.090924561E-1
5.211328130E-1,-6.196768880E-1,9.860768318E0,3.277374804E-1
5.260953130E-1,-6.077154279E-1,9.860768318E0,3.061992526E-1
5.310578130E-1,-6.483976841E-1,9.879913330E0,3.301316798E-1
5.360218750E-1,-5.981481671E-1,9.877518654E0,3.157664835E-1
5.409843750E-1,-6.627533436E-1,9.860768318E0,4.641303718E-1
5.459468750E-1,-6.029270291E-1,9.899056435E0,4.425921440E-1
5.509109380E-1,-5.598601103E-1,9.875133514E0,5.191587210E-1
5.558734380E-1,-6.316478848E-1,9.839240074E0,5.311201215E-1
5.608375000E-1,-5.981481671E-1,9.820096016E0,4.928416312E-1
5.658000000E-1,-5.981481671E-1,9.848807335E0,5.287354589E-1
5.707640630E-1,-5.455045104E-1,9.913412094E0,5.550525784E-1
5.757265630E-1,-6.579648852E-1,9.980412483E0,5.454853773E-1
5.806890630E-1,-7.704253793E-1,9.901451111E0,5.789849758E-1
5.856531250E-1,-6.699264050E-1,9.930162430E0,6.220518947E-1
5.906156250E-1,-7.656465173E-1,9.946911812E0,6.699072123E-1
5.955796880E-1,-5.981481671E-1,9.951700211E0,6.483689547E-1
6.005421880E-1,-6.005424261E-1,1.003305531E1,6.220518947E-1
6.055062500E-1,-6.579648852E-1,1.001391125E1,6.244460940E-1
6.104687500E-1,-6.029270291E-1,1.004980564E1,5.454853773E-1
6.154312500E-1,-6.460034847E-1,9.970844269E0,4.928416312E-1
6.203953130E-1,-6.651475430E-1,1.004501629E1,3.540545404E-1
6.253578130E-1,-7.704253793E-1,1.005698872E1,2.822668254E-1
6.303218750E-1,-8.781070113E-1,9.970844269E0,3.492661417E-1
6.352843750E-1,-8.709243536E-1,1.006416130E1,3.205548823E-1
6.402484380E-1,-8.302516937E-1,1.014312172E1,5.048030615E-1
6.452109380E-1,-7.800021768E-1,1.007373714E1,7.153682709E-1
6.501734380E-1,-6.986472011E-1,1.013355446E1,8.254441619E-1
6.551375000E-1,-6.675417423E-1,1.022209167E1,1.004903913E0
6.601000000E-1,-5.813983679E-1,1.015748692E1,1.110191226E0
6.650640630E-1,-5.861771703E-1,1.018619823E1,1.153258204E0
6.700265630E-1,-4.617553055E-1,9.872738838E0,1.342294812E0
6.749906250E-1,-4.282556474E-1,1.016944790E1,1.337506413E0
6.799531250E-1,-4.402170777E-1,1.022209167E1,1.349467874E0
6.849156250E-1,-5.646485090E-1,1.020055389E1,1.186757922E0
6.898796880E-1,-5.287546515E-1,1.009288216E1,1.205901980E0
6.948421880E-1,-3.038241863E-1,1.008330441E1,1.119758487E0
6.998062500E-1,-3.205740452E-1,1.005938148E1,1.181969523E0
7.047687500E-1,-2.631514966E-1,9.913412094E0,1.088653088E0
7.097312500E-1,-3.086126149E-1,9.863162994E0,9.881540537E-1
7.146953130E-1,-2.440074682E-1,9.877518654E0,8.158673048E-1
7.196578130E-1,1.149025261E-1,1.009526634E1,6.699072123E-1
7.246218750E-1,2.943718731E-1,1.021012115E1,5.670139790E-1
7.295843750E-1,1.077295020E-1,9.863162994E0,5.981194377E-1
7.345484380E-1,-8.129751682E-2,9.542531013E0,4.808706343E-1
7.395109380E-1,-1.363354176E-1,9.463561058E0,4.330153167E-1
7.444734380E-1,9.634267539E-3,9.525781631E0,3.875542283E-1
7.494375000E-1,1.340465695E-1,9.611914635E0,3.277374804E-1
7.544000000E-1,2.177957445E-1,9.616703987E0,4.066982567E-1
7.593640630E-1,3.326503932E-1,9.544916153E0,3.468815386E-1
7.643265630E-1,4.690432847E-1,9.571242332E0,4.210538864E-1
7.692906250E-1,6.054361463E-1,9.652597427E0,8.278383017E-1
7.742531250E-1,-2.009405643E-1,9.654992104E0,5.383027196E-1
7.792156250E-1,-3.301508427E-1,9.602347374E0,1.650275439E-1
7.841796880E-1,-5.215719938E-1,9.626279831E0,1.905784570E-2
7.891421880E-1,-5.790041685E-1,9.774634361E0,-2.226033062E-1
7.941062500E-1,-8.326458931E-1,9.750701904E0,-3.829286098E-1
7.990687500E-1,-8.996452093E-1,9.779414177E0,-4.044572711E-1
8.040328130E-1,-9.833943844E-1,9.808135033E0,-2.800354064E-1
8.089953130E-1,-9.857790470E-1,9.769846916E0,-2.249974906E-1
8.139578130E-1,-8.446072936E-1,9.815307617E0,-1.914978325E-1
8.189218750E-1,-7.201758623E-1,9.855990410E0,-5.511452630E-2
8.238843750E-1,-6.005424261E-1,9.877518654E0,3.102885373E-2
8.288484380E-1,-5.502929091E-1,9.927767754E0,2.224500775E-1
8.338109380E-1,-5.431103110E-1,9.997160912E0,3.755927682E-1
8.387750000E-1,-4.234672487E-1,9.922988892E0,4.928416312E-1
8.437375000E-1,-3.780061305E-1,9.920595169E0,7.058010697E-1
8.487000000E-1,-4.043232203E-1,9.925383568E0,7.560505867E-1
8.536640630E-1,-3.923617899E-1,9.908634186E0,7.297335267E-1
8.586265630E-1,-3.827945590E-1,9.899056435E0,7.512621880E-1
8.635906250E-1,-3.804003298E-1,9.966055870E0,6.053020358E-1
8.685531250E-1,-4.617553055E-1,9.930162430E0,5.287354589E-1
8.735171880E-1,-5.287546515E-1,9.970844269E0,5.454853773E-1
8.784796880E-1,-5.478987098E-1,1.003305531E1,4.306307137E-1
8.834421880E-1,-6.388209462E-1,9.994767189E0,3.133818507E-1
8.884062500E-1,-6.962530017E-1,1.002588272E1,3.684101999E-1
8.933687500E-1,-7.010414004E-1,1.001870060E1,2.846610248E-1
8.983328130E-1,-6.747148037E-1,1.000673866E1,3.301316798E-1
9.032953130E-1,-7.967520356E-1,1.001870060E1,1.817677915E-1
9.082593750E-1,-8.374247551E-1,9.970844269E0,7.096413523E-3
9.132218750E-1,-7.010414004E-1,9.961267471E0,-3.836468980E-2
9.181843750E-1,-6.340420246E-1,9.992383003E0,-2.640325576E-2
9.231484380E-1,-6.340420246E-1,9.867951393E0,-4.315309227E-2
9.281109380E-1,-6.507919431E-1,9.853595734E0,1.427901909E-2
9.330750000E-1,-6.101096272E-1,9.870346069E0,2.296326756E-1
9.380375000E-1,-6.316478848E-1,9.920595169E0,3.229490519E-1
9.430015630E-1,-7.034260035E-1,9.968450546E0,4.545535445E-1
9.479640630E-1,-8.254632354E-1,1.005698872E1,6.531573534E-1
9.529265630E-1,-1.114998937E0,1.030823517E1,8.780878186E-1
9.578906250E-1,-1.397351980E0,1.011441040E1,9.259431362E-1
9.628531250E-1,-1.315997005E0,1.006894875E1,7.034068704E-1
9.678171880E-1,-1.239420772E0,1.016226578E1,1.650275439E-1
9.727796880E-1,-7.871752381E-1,1.013115978E1,-5.033569783E-2
9.777437500E-1,-8.446072936E-1,1.008330441E1,1.267394572E-1
9.827062500E-1,-6.436092854E-1,9.970844269E0,1.267394572E-1
9.876687500E-1,-8.326458931E-1,9.997160912E0,3.349105120E-1
9.926328130E-1,-5.837925673E-1,1.002109337E1,4.114866555E-1
9.975953130E-1,-3.899675608E-1,9.968450546E0,5.287354589E-1
1.002559375E0,-2.272576243E-1,9.915806770E0,5.789849758E-1
1.007521875E0,-1.722197086E-1,9.906239510E0,4.736976027E-1
1.012485938E0,-7.411490381E-2,9.836845398E0,5.741965771E-1
1.017448438E0,-7.890331000E-2,9.765057564E0,5.215529203E-1
1.022410938E0,-8.129751682E-2,9.757884979E0,5.789849758E-1
1.027375000E0,2.451662440E-3,9.741134644E0,4.976204634E-1
1.032337500E0,-1.908657700E-2,9.765057564E0,5.071972609E-1
1.037301563E0,-7.411490381E-2,9.678915024E0,4.880532324E-1
1.042264063E0,-1.626524776E-1,9.731558800E0,4.066982567E-1
1.047228125E0,-2.440074682E-1,9.714808464E0,4.545535445E-1
1.052190625E0,-3.325450420E-1,9.666953087E0,4.784860015E-1
1.057153125E0,-3.014395833E-1,9.686098099E0,4.306307137E-1
1.062117188E0,-1.961521655E-1,9.726778984E0,3.253432810E-1
1.067079688E0,-1.459026486E-1,9.714808464E0,3.109876513E-1
1.072042188E0,-1.028357521E-1,9.750701904E0,2.655169666E-1
1.077006250E0,-4.779784381E-2,9.796163559E0,3.085934520E-1
1.081968750E0,-4.540364072E-2,9.834450722E0,3.708043694E-1
1.086932813E0,-1.889695525E-1,9.853595734E0,3.731985688E-1
1.091895313E0,-2.990453839E-1,9.793779373E0,5.502641797E-1
1.096859375E0,-3.205740452E-1,9.932557106E0,6.459843516E-1
1.101821875E0,-5.191778541E-1,1.017184258E1,6.555515528E-1
1.106785938E0,-6.412150860E-1,9.978017807E0,7.656177878E-1
1.111748438E0,-5.981481671E-1,9.894268990E0,7.464833260E-1
1.116710938E0,-3.804003298E-1,9.884700775E0,5.263413191E-1
1.121675000E0,-2.870743573E-1,9.915806770E0,3.229490519E-1
1.126637500E0,-2.129019946E-1,9.872738838E0,2.104886323E-1
1.131601563E0,-2.129019946E-1,9.911018372E0,2.559497356E-1
1.136564063E0,-2.392190546E-1,9.839240074E0,1.841619909E-1
1.141526563E0,-1.913637519E-1,9.853595734E0,2.176616639E-1
1.146490625E0,-2.416132689E-1,9.901451111E0,2.655169666E-1
1.151453125E0,-2.751129270E-1,9.863162994E0,2.655169666E-1
1.156417188E0,-2.870743573E-1,9.836845398E0,3.373047113E-1
1.161379688E0,-3.540737033E-1,9.865556717E0,3.660160005E-1
1.166343750E0,-4.067174196E-1,9.851201057E0,4.162654579E-1
1.171306250E0,-5.120047927E-1,9.846412659E0,5.526583791E-1
1.176268750E0,-4.856877327E-1,9.820096016E0,7.177625299E-1
1.181232813E0,-4.402170777E-1,9.788990021E0,9.714042544E-1
1.186195313E0,-2.105077952E-1,9.781807899E0,1.071903229E0
1.191159375E0,-2.386540174E-2,9.798557281E0,1.217863441E0
1.196121875E0,5.748957023E-2,9.779414177E0,1.232218981E0
1.201085938E0,1.077295020E-1,9.729164124E0,1.225046039E0
1.206048438E0,1.914786696E-1,9.729164124E0,1.189152122E0
1.211010938E0,2.560837865E-1,9.676529884E0,1.143691063E0
1.215975000E0,2.225841433E-1,9.712413788E0,1.067114830E0
1.220937500E0,1.747288406E-1,9.760279655E0,1.074297428E0
1.225901563E0,1.723346412E-1,9.736346245E0,1.081470490E0
1.230864063E0,1.053352952E-1,9.717203140E0,1.124547005E0
1.235828125E0,1.340465695E-1,9.793779373E0,1.014471173E0
1.240790625E0,1.053352952E-1,9.853595734E0,1.062336087E0
1.245753125E0,1.292581707E-1,9.829663277E0,1.000115514E0
1.250717188E0,1.819018722E-1,9.772240639E0,9.737984538E-1
1.255679688E0,2.249783427E-1,9.779414177E0,9.857599139E-1
1.260643750E0,2.058342993E-1,9.798557281E0,9.402987957E-1
1.265606250E0,2.608722150E-1,9.810519218E0,9.259431362E-1
1.270570313E0,1.890844703E-1,9.803345680E0,7.728003860E-1
1.275532813E0,9.576806426E-2,9.848807335E0,5.957348347E-1
1.280495313E0,5.030696467E-2,9.829663277E0,6.029078960E-1
1.285459375E0,6.466259807E-2,9.829663277E0,5.957348347E-1
1.290421875E0,9.815269709E-2,9.762663841E0,5.622351766E-1
1.295385938E0,1.795076579E-1,9.698058128E0,5.598409176E-1
1.300348438E0,1.866902709E-1,9.726778984E0,6.148692966E-1
1.305312500E0,2.010459006E-1,9.738740921E0,5.598409176E-1
1.310275000E0,1.101237014E-1,9.808135033E0,6.340133548E-1
1.315237500E0,3.355713189E-2,9.834450722E0,5.574467778E-1
1.320201563E0,-8.369170874E-2,9.860768318E0,6.292344928E-1
1.325164063E0,-2.535746992E-1,9.827268600E0,6.986184716E-1
1.330128125E0,-3.540737033E-1,9.769846916E0,7.871560454E-1
1.335090625E0,-4.497938752E-1,9.820096016E0,8.565496206E-1
1.340053125E0,-5.311488509E-1,9.925383568E0,9.402987957E-1
1.345017188E0,-5.598601103E-1,9.903844833E0,9.546543956E-1
1.349979688E0,-5.359276533E-1,9.899056435E0,9.929425120E-1
1.354943750E0,-5.024375916E-1,9.867951393E0,1.052759290E0
1.359906250E0,-4.282556474E-1,9.832057953E0,1.126941204E0
1.364870313E0,-3.708235621E-1,9.839240074E0,1.105402946E0
1.369832813E0,-3.134010136E-1,9.817702293E0,1.047970772E0
1.374795313E0,-2.559688985E-1,9.824884415E0,8.804724813E-1
1.379759375E0,-2.655456960E-1,9.741134644E0,8.374055624E-1
1.384721875E0,-2.105077952E-1,9.726778984E0,7.440891862E-1
1.389685938E0,-1.913637519E-1,9.743529320E0,6.579458117E-1
1.394648438E0,-2.775071263E-1,9.712413788E0,5.287354589E-1
1.399612500E0,-3.612563312E-1,9.731558800E0,5.048030615E-1
1.404575000E0,-4.043232203E-1,9.784202576E0,4.282364845E-1
1.409537500E0,-4.665437341E-1,9.793779373E0,3.947368264E-1
1.414501563E0,-5.742157698E-1,9.765057564E0,3.947368264E-1
1.419464063E0,-5.885714293E-1,9.820096016E0,4.234480858E-1
1.424428125E0,-5.790041685E-1,9.800951958E0,4.425921440E-1
1.429390625E0,-5.574659705E-1,9.798557281E0,3.014108241E-1
1.434354688E0,-4.497938752E-1,9.820096016E0,2.774879634E-1
1.439317188E0,-3.851887584E-1,9.767452240E0,1.339124888E-1
1.444279688E0,-4.091115892E-1,9.767452240E0,5.734591931E-2
1.449243750E0,-2.966511548E-1,9.827268600E0,1.004128158E-1
1.454206250E0,-2.990453839E-1,9.788990021E0,-1.053640321E-1
1.459170313E0,-2.105077952E-1,9.788990021E0,-3.597048670E-2
1.464132813E0,-1.339412183E-1,9.796163559E0,1.666364260E-2
1.469095313E0,-1.339412183E-1,9.827268600E0,1.339124888E-1
1.474059375E0,-7.650911063E-2,9.760279655E0,1.602391303E-1
1.479021875E0,7.423940301E-2,9.808135033E0,2.248442620E-1
1.483985938E0,5.988377333E-2,9.774634361E0,1.698063612E-1
1.488946875E0,5.509537086E-2,9.786596298E0,1.530565321E-1
1.493910938E0,2.451662440E-3,9.772240639E0,7.170155644E-2
1.498873438E0,-1.602582783E-1,9.755491257E0,1.674121618E-1
1.503839063E0,-2.751129270E-1,9.755491257E0,2.511613369E-1
1.508800000E0,-3.636505008E-1,9.786596298E0,3.468815386E-1
1.513764063E0,-4.521880746E-1,9.793779373E0,4.832648337E-1
1.518728125E0,-4.808993638E-1,9.860768318E0,4.952358305E-1
1.523690625E0,-4.880723953E-1,9.911018372E0,6.076962948E-1
1.528653125E0,-5.143990517E-1,9.987594604E0,6.627342105E-1
1.533617188E0,-4.761109650E-1,9.882307053E0,6.196576953E-1
1.538581250E0,-4.330440462E-1,9.899056435E0,8.182615638E-1
1.543543750E0,-3.756119311E-1,9.920595169E0,8.445882201E-1
1.548506250E0,-3.157951832E-1,9.963662148E0,8.996165395E-1
1.553468750E0,-3.134010136E-1,9.944517136E0,1.019259572E0
1.558432813E0,-2.751129270E-1,1.000195026E1,1.019259572E0
1.563396875E0,-1.482968628E-1,1.002826691E1,1.074297428E0
1.568357813E0,-1.650466919E-1,1.005938148E1,1.081470490E0
1.573321875E0,-1.506910622E-1,1.000673866E1,1.062336087E0
1.578284375E0,-1.554698795E-1,9.994767189E0,1.040797710E0
1.583248438E0,-3.344221041E-2,1.007613182E1,1.047970772E0
1.588210938E0,-2.336740959E-3,1.008569908E1,9.426929951E-1
1.593175000E0,-9.804734588E-2,1.009766006E1,9.307219982E-1
1.598137500E0,-1.004415527E-1,1.010484314E1,8.326171637E-1
1.603100000E0,-1.147971824E-1,1.007851696E1,8.182615638E-1
1.608064063E0,-7.890331000E-2,1.009048748E1,7.488679886E-1
1.613026563E0,-9.325893968E-2,1.010484314E1,6.746956110E-1
1.617990625E0,-1.195855886E-1,1.005938148E1,5.502641797E-1
1.622953125E0,-2.081135809E-1,1.014312172E1,4.808706343E-1
1.627915625E0,-3.492948711E-1,1.005459404E1,6.124846935E-1
1.632879688E0,-3.660447001E-1,1.005459404E1,5.311201215E-1
1.637843750E0,-2.799013257E-1,1.007613182E1,5.215529203E-1
1.642806250E0,-2.248634249E-1,9.985199928E0,5.239470601E-1
1.647768750E0,-1.291528195E-1,1.004023838E1,4.306307137E-1
1.652732813E0,-1.190397050E-2,1.001630592E1,3.468815386E-1
1.657695313E0,6.705679744E-2,9.954094887E0,2.918435931E-1
1.662657813E0,1.962575018E-1,9.841633797E0,2.798821628E-1
1.667621875E0,3.302561939E-1,9.846412659E0,2.463825047E-1
1.672584375E0,4.403319955E-1,9.808135033E0,3.277374804E-1
1.677548438E0,5.695422888E-1,9.882307053E0,4.880532324E-1
1.682510938E0,5.097255707E-1,9.834450722E0,5.143703222E-1
1.687475000E0,3.876882792E-1,9.844018936E0,6.292344928E-1
1.692437500E0,3.398329914E-1,9.853595734E0,6.268403530E-1
1.697401563E0,3.565828204E-1,9.772240639E0,6.770898700E-1
1.702364063E0,4.331493974E-1,9.767452240E0,7.656177878E-1
1.707326563E0,5.575808883E-1,9.748308182E0,7.919444442E-1
1.712290625E0,5.527924299E-1,9.674136162E0,7.512621880E-1
1.717253125E0,5.623596907E-1,9.671741486E0,8.134731650E-1
1.722217188E0,5.575808883E-1,9.659780502E0,8.900492787E-1
1.727179688E0,5.910804868E-1,9.652597427E0,1.007298112E0
1.732142188E0,5.743306875E-1,9.616703987E0,1.081470490E0
1.737106250E0,4.953603148E-1,9.666953087E0,1.239401579E0
1.742068750E0,4.475050271E-1,9.650202751E0,1.268112898E0
1.747032813E0,4.044381380E-1,9.690885544E0,1.349467874E0
1.751995313E0,3.206889629E-1,9.690885544E0,1.375794411E0
1.756957813E0,3.661500514E-1,9.733952522E0,1.335112214E0
1.761921875E0,3.398329914E-1,9.719596863E0,1.387755871E0
1.766884375E0,4.259763658E-1,9.676529884E0,1.359044671E0
1.771848438E0,4.881873131E-1,9.714808464E0,1.193940520E0
1.776810938E0,4.044381380E-1,9.710029602E0,1.174796462E0
1.781775000E0,3.494002223E-1,9.695664406E0,1.165219545E0
1.786737500E0,2.847950757E-1,9.707635880E0,1.052759290E0
1.791700000E0,2.489012182E-1,9.736346245E0,8.948376179E-1
1.796664063E0,1.627578288E-1,9.798557281E0,8.780878186E-1
1.801628125E0,1.507963985E-1,9.851201057E0,8.780878186E-1
1.806590625E0,1.412291676E-1,9.796163559E0,9.139720798E-1
1.811553125E0,1.460079998E-1,9.867951393E0,9.690100551E-1
1.816515625E0,1.412291676E-1,9.865556717E0,9.929425120E-1
1.821479688E0,6.466259807E-2,9.975632668E0,9.139720798E-1
1.826443750E0,4.845864139E-3,9.927767754E0,8.637226820E-1
1.831406250E0,-8.129751682E-2,9.913412094E0,8.254441619E-1
1.836368750E0,-2.392190546E-1,9.836845398E0,8.206557035E-1
1.841332813E0,-2.990453839E-1,9.870346069E0,7.584447861E-1
1.846295313E0,-3.014395833E-1,9.927767754E0,7.943387032E-1
1.851259375E0,-2.631514966E-1,9.911018372E0,8.182615638E-1
1.856221875E0,-1.219702139E-1,9.949306488E0,9.091932774E-1
1.861184375E0,-7.115567569E-3,9.865556717E0,9.785868526E-1
1.866148438E0,5.988377333E-2,9.851201057E0,9.809715152E-1
1.871110938E0,1.484021842E-1,9.769846916E0,9.163663387E-1
1.876075000E0,1.890844703E-1,9.791384697E0,8.732994199E-1
1.881037500E0,2.465070039E-1,9.741134644E0,7.608389854E-1
1.886001563E0,2.225841433E-1,9.743529320E0,6.435901523E-1
1.890964063E0,2.010459006E-1,9.705241203E0,5.526583791E-1
1.895928125E0,1.077295020E-1,9.702846527E0,6.627342105E-1
1.900890625E0,1.077295020E-1,9.664558411E0,6.220518947E-1
1.905853125E0,2.297571748E-1,9.566453934E0,7.823676467E-1
1.910817188E0,2.895835042E-1,9.619097710E0,7.799734473E-1
1.915779688E0,2.847950757E-1,9.640635490E0,7.895502448E-1
1.920743750E0,3.230831623E-1,9.607136726E0,7.512621880E-1
1.925706250E0,2.991507351E-1,9.599953651E0,5.430911183E-1
1.930668750E0,2.177957445E-1,9.595166206E0,4.952358305E-1
1.935632813E0,2.512954175E-1,9.647809982E0,2.391999066E-1
1.940595313E0,2.680452466E-1,9.635848045E0,2.918435931E-1
1.945559375E0,2.249783427E-1,9.686098099E0,3.325162828E-1
1.950521875E0,1.077295020E-1,9.705241203E0,3.301316798E-1
1.955485938E0,-7.650911063E-2,9.808135033E0,2.679111660E-1
1.960448438E0,-2.320460379E-1,9.779414177E0,1.745947748E-1
1.965410938E0,-3.014395833E-1,9.769846916E0,1.267394572E-1
1.970375000E0,-3.851887584E-1,9.731558800E0,1.905784570E-2
1.975337500E0,-3.732177317E-1,9.796163559E0,1.028070226E-1
1.980301563E0,-3.253624141E-1,9.870346069E0,5.255751312E-2
1.985264063E0,-2.703245282E-1,9.966055870E0,-7.186435908E-2
1.990226563E0,-3.014395833E-1,9.927767754E0,-3.119166009E-2
1.995190625E0,-2.966511548E-1,9.872738838E0,4.777869210E-2
2.000153125E0,-3.421122730E-1,9.891883850E0,2.145204693E-2
2.005117188E0,-3.732177317E-1,9.879913330E0,-1.005852073E-1
2.010079688E0,-4.928607643E-1,9.985199928E0,-2.010650635E-1
2.015043750E0,-5.598601103E-1,9.954094887E0,-3.781402409E-1
2.020006250E0,-8.135018349E-1,9.934949875E0,-3.972842395E-1
2.024968750E0,-8.828954101E-1,9.884700775E0,-5.791382194E-1
2.029932813E0,-1.064749360E0,9.891883850E0,-6.676662564E-1
2.034895313E0,-9.977500439E-1,9.865556717E0,-6.078494787E-1
2.039859375E0,-9.068182111E-1,9.913412094E0,-5.432443619E-1
2.044821875E0,-8.661455512E-1,9.899056435E0,-5.312829614E-1
2.049785938E0,-7.991462350E-1,9.954094887E0,-4.571009874E-1
2.054748438E0,-7.800021768E-1,9.944517136E0,-3.829286098E-1
2.059710938E0,-8.015404344E-1,9.932557106E0,-3.853132427E-1
2.064675000E0,-7.082144022E-1,9.922988892E0,-2.656797767E-1
2.069637500E0,-6.029270291E-1,1.003066158E1,-2.561029792E-1
2.074601563E0,-6.268594265E-1,1.005459404E1,-1.795363873E-1
2.079564063E0,-5.550717115E-1,1.005938148E1,-1.053640321E-1
2.084528125E0,-6.053212285E-1,1.009048748E1,-5.272032320E-2
2.089490625E0,-6.507919431E-1,1.009526634E1,9.802819043E-2
2.094453125E0,-6.818974018E-1,1.013115978E1,2.942378223E-1
2.099417188E0,-7.345410585E-1,1.012159252E1,3.253432810E-1
2.104379688E0,-7.632523179E-1,1.014312172E1,3.444873095E-1
2.109342188E0,-8.278574944E-1,1.016944790E1,3.373047113E-1
2.114306250E0,-8.206748366E-1,1.015748692E1,3.109876513E-1
2.119268750E0,-8.374247551E-1,1.016705418E1,3.636313379E-1
2.124232813E0,-8.135018349E-1,1.018380356E1,2.224500775E-1
2.129195313E0,-8.182806969E-1,1.019815922E1,1.889503896E-1
2.134157813E0,-7.465025187E-1,1.013355446E1,1.650275439E-1
2.139121875E0,-6.316478848E-1,1.016944790E1,1.913446039E-1
2.144084375E0,-6.244652867E-1,1.013355446E1,1.793831587E-1
2.149048438E0,-6.483976841E-1,1.012398720E1,7.170155644E-2
2.154010938E0,-6.101096272E-1,1.001630592E1,-2.400905453E-2
2.158975000E0,-5.455045104E-1,1.005938148E1,-5.990292877E-2
2.163937500E0,-5.215719938E-1,1.004980564E1,-1.221138611E-1
2.168901563E0,-5.383219123E-1,1.006894875E1,-1.675653905E-1
2.173864063E0,-5.239662528E-1,1.004741096E1,-1.532097608E-1
2.178826563E0,-4.832935631E-1,1.007851696E1,-2.273916900E-1
2.183790625E0,-4.569669068E-1,1.001391125E1,-2.010650635E-1
2.188754688E0,-4.234672487E-1,9.963662148E0,-9.100839496E-2
2.193717188E0,-2.679399252E-1,9.911018372E0,-3.119166009E-2
2.198679688E0,-1.889695525E-1,9.918201447E0,-1.508155465E-1
2.203643750E0,-7.650911063E-2,9.939739227E0,-1.077582315E-1
2.208606250E0,-4.540364072E-2,9.896661758E0,-9.340259433E-2
2.213570313E0,-5.497087166E-2,9.877518654E0,-9.579680115E-2
2.218532813E0,-1.076145768E-1,9.846412659E0,-1.173350364E-1
2.223496875E0,-1.865849346E-1,9.827268600E0,-6.229712814E-2
2.228457813E0,-2.583630979E-1,9.803345680E0,-2.879745886E-2
2.233421875E0,-2.176903933E-1,9.824884415E0,4.777869210E-2
2.238384375E0,-2.511900663E-1,9.800951958E0,3.820187971E-2
2.243348438E0,-2.775071263E-1,9.753096581E0,-2.161485329E-2
2.248312500E0,-2.894685566E-1,9.765057564E0,-7.904696465E-2
2.253273438E0,-3.062183857E-1,9.700452805E0,-1.986804307E-1
2.258237500E0,-4.019385576E-1,9.750701904E0,-2.082476616E-1
2.263201563E0,-3.899675608E-1,9.753096581E0,-9.100839496E-2
2.268164063E0,-4.473996758E-1,9.721991539E0,-1.891036183E-1
2.273128125E0,-4.832935631E-1,9.755491257E0,-2.034592628E-1
2.278090625E0,-5.455045104E-1,9.803345680E0,-1.747480035E-1
2.283054688E0,-6.268594265E-1,9.817702293E0,-1.699595898E-1
2.288017188E0,-6.172922254E-1,9.760279655E0,-1.364599168E-1
2.292981250E0,-5.622543097E-1,9.784202576E0,-2.010650635E-1
2.297943750E0,-6.172922254E-1,9.743529320E0,-1.747480035E-1
2.302906250E0,-5.335431099E-1,9.832057953E0,-8.383536339E-2
2.307870313E0,-4.880723953E-1,9.784202576E0,1.905784570E-2
2.312832813E0,-5.048221946E-1,9.800951958E0,9.323979169E-2
2.317796875E0,-5.072164536E-1,9.784202576E0,6.930734962E-2
2.322759375E0,-5.478987098E-1,9.839240074E0,6.691315025E-2
2.327723438E0,-4.952549636E-1,9.887095451E0,1.291336715E-1
2.332685938E0,-5.000433922E-1,9.860768318E0,1.913446039E-1
2.337648438E0,-4.282556474E-1,9.798557281E0,2.009118348E-1
2.342612500E0,-3.397180736E-1,9.820096016E0,2.368056923E-1
2.347575000E0,-3.277566135E-1,9.877518654E0,3.038050532E-1
2.352539063E0,-2.751129270E-1,9.853595734E0,2.822668254E-1
2.357501563E0,-2.535746992E-1,9.872738838E0,1.817677915E-1
2.362464063E0,-2.966511548E-1,9.863162994E0,2.990166247E-1
2.367428125E0,-3.827945590E-1,9.836845398E0,3.085934520E-1
2.372390625E0,-4.258614480E-1,9.836845398E0,3.157664835E-1
2.377354688E0,-4.545727372E-1,9.867951393E0,3.995156586E-1
2.382317188E0,-4.569669068E-1,9.946911812E0,4.210538864E-1
2.387281250E0,-4.952549636E-1,9.918201447E0,4.449863136E-1
2.392243750E0,-5.861771703E-1,9.930162430E0,3.349105120E-1
2.397206250E0,-6.579648852E-1,9.944517136E0,3.014108241E-1
2.402170313E0,-6.101096272E-1,9.870346069E0,2.798821628E-1
2.407132813E0,-6.220710278E-1,9.949306488E0,2.296326756E-1
2.412096875E0,-7.153970599E-1,9.925383568E0,3.109876513E-1
2.417059375E0,-6.842915416E-1,9.958883286E0,2.822668254E-1
2.422021875E0,-7.608581781E-1,9.915806770E0,1.961330026E-1
2.426984375E0,-7.895693779E-1,9.968450546E0,1.841619909E-1
2.431948438E0,-8.206748366E-1,9.882307053E0,1.267394572E-1
2.436912500E0,-6.699264050E-1,1.005459404E1,-6.469132751E-2
2.441875000E0,-6.220710278E-1,9.942132950E0,-8.144116402E-2
2.446837500E0,-4.402170777E-1,9.932557106E0,-3.836468980E-2
2.451801563E0,-3.684388995E-1,9.932557106E0,-6.229712814E-2
2.456764063E0,-1.913637519E-1,9.932557106E0,-8.619125583E-5
2.461728125E0,-9.325893968E-2,9.896661758E0,-4.554729536E-2
2.466692188E0,-1.429817267E-2,9.805740356E0,-9.819100052E-2
2.471653125E0,-6.215347722E-2,9.832057953E0,-8.621999621E-2
2.476617188E0,-4.061523825E-2,9.851201057E0,-8.621999621E-2
2.481579688E0,4.791276529E-2,9.791384697E0,-1.603923589E-1
2.486543750E0,6.945100427E-2,9.820096016E0,-9.340259433E-2
2.491506250E0,7.663360238E-2,9.762663841E0,-1.627865583E-1
2.496470313E0,-2.865380608E-2,9.729164124E0,-1.962862462E-1
2.501432813E0,7.240065839E-3,9.757884979E0,-4.554729536E-2
2.506396875E0,-9.509769268E-3,9.777029037E0,3.580768034E-2
2.511359375E0,-4.300943762E-2,9.788990021E0,9.490615688E-3
2.516323438E0,5.509537086E-2,9.791384697E0,1.004128158E-1
2.521285938E0,7.184520364E-2,9.781807899E0,3.580768034E-2
2.526248438E0,8.620083332E-2,9.844018936E0,-2.470816020E-3
2.531212500E0,7.902780920E-2,9.779414177E0,4.777869210E-2
2.536175000E0,8.859504014E-2,9.741134644E0,1.171626523E-1
2.541137500E0,4.313393682E-2,9.839240074E0,1.865562052E-1
2.546100000E0,-1.004415527E-1,9.872738838E0,2.320173085E-1
2.551065625E0,-2.368248552E-1,9.903844833E0,2.870551944E-1
2.556026563E0,-3.804003298E-1,9.903844833E0,1.410950869E-1
2.560990625E0,-4.306498468E-1,9.989988327E0,1.841619909E-1
2.565954688E0,-4.426112771E-1,9.982805252E0,1.937388033E-1
2.570917188E0,-4.426112771E-1,1.000673866E1,2.296326756E-1
2.575881250E0,-5.096106529E-1,9.925383568E0,2.942378223E-1
2.580843750E0,-4.976491928E-1,1.001391125E1,3.061992526E-1
2.585806250E0,-5.742157698E-1,1.002109337E1,2.080944330E-1
2.590770313E0,-5.167931914E-1,1.002109337E1,2.798821628E-1
2.595732813E0,-4.785051644E-1,1.003305531E1,2.966320217E-1
2.600696875E0,-5.191778541E-1,1.003544903E1,3.061992526E-1
2.605659375E0,-5.191778541E-1,1.008569908E1,2.655169666E-1
2.610621875E0,-4.713225365E-1,1.003066158E1,2.033060342E-1
2.615584375E0,-4.761109650E-1,1.008091068E1,1.602391303E-1
2.620548438E0,-4.354382753E-1,9.997160912E0,1.889503896E-1
2.625510938E0,-3.708235621E-1,9.963662148E0,1.554507315E-1
2.630475000E0,-3.540737033E-1,1.003305531E1,1.482776999E-1
2.635439063E0,-3.110068142E-1,9.961267471E0,9.563399851E-2
2.640401563E0,-2.559688985E-1,9.975632668E0,1.028070226E-1
2.645365625E0,-3.277566135E-1,9.939739227E0,1.530565321E-1
2.650328125E0,-3.038241863E-1,9.944517136E0,1.004128158E-1
2.655292188E0,-2.822955251E-1,9.922988892E0,1.219510585E-1
2.660254688E0,-2.990453839E-1,9.970844269E0,1.052012220E-1
2.665217188E0,-2.679399252E-1,9.958883286E0,1.506623179E-1
2.670181250E0,-2.368248552E-1,9.985199928E0,2.128828466E-1
2.675143750E0,-2.894685566E-1,9.906239510E0,2.272384614E-1
2.680107813E0,-2.105077952E-1,9.913412094E0,2.655169666E-1
2.685070313E0,-2.511900663E-1,9.879913330E0,2.535555363E-1
2.690034375E0,-2.583630979E-1,9.937344551E0,2.033060342E-1
2.694996875E0,-3.301508427E-1,9.841633797E0,2.726995945E-1
2.699959375E0,-3.229682446E-1,9.853595734E0,2.750937939E-1
2.704923438E0,-3.301508427E-1,9.860768318E0,3.564487696E-1
2.709885938E0,-2.535746992E-1,9.887095451E0,3.253432810E-1
2.714850000E0,-2.751129270E-1,9.918201447E0,2.750937939E-1
2.719812500E0,-2.655456960E-1,9.855990410E0,1.793831587E-1
2.724776563E0,-2.344402373E-1,9.858384132E0,8.845138550E-2
2.729739063E0,-2.057193965E-1,9.882307053E0,-9.653421119E-3
2.734701563E0,-1.674408913E-1,9.913412094E0,-4.865017720E-3
2.739665625E0,-1.195855886E-1,9.939739227E0,-5.990292877E-2
2.744628125E0,-1.530852467E-1,9.877518654E0,-1.316906810E-1
2.749590625E0,-1.506910622E-1,9.865556717E0,-1.173350364E-1
2.754554688E0,-2.105077952E-1,9.844018936E0,-1.651807725E-1
2.759517188E0,-2.822955251E-1,9.834450722E0,-1.484309286E-1
2.764481250E0,-3.445064723E-1,9.855990410E0,-9.100839496E-2
2.769443750E0,-3.277566135E-1,9.844018936E0,-1.125466302E-1
2.774407813E0,-2.846897244E-1,9.891883850E0,-5.272032320E-2
2.779370313E0,-2.870743573E-1,9.894268990E0,-9.100839496E-2
2.784334375E0,-2.751129270E-1,9.891883850E0,-2.640325576E-2
2.789296875E0,-2.822955251E-1,9.915806770E0,-5.272032320E-2
2.794259375E0,-2.559688985E-1,9.848807335E0,-6.947015226E-2
2.799223438E0,-3.588621020E-1,9.887095451E0,7.096413523E-3
2.804185938E0,-4.306498468E-1,9.906239510E0,5.495171621E-2
2.809150000E0,-4.162942171E-1,9.949306488E0,2.798821628E-1
2.814112500E0,-3.708235621E-1,9.946911812E0,1.387009025E-1
2.819076563E0,-5.000433922E-1,9.980412483E0,2.894493937E-1
2.824039063E0,-5.215719938E-1,1.001151752E1,3.253432810E-1
2.829001563E0,-4.426112771E-1,1.005938148E1,2.487671375E-1
2.833965625E0,-4.976491928E-1,1.008330441E1,2.368056923E-1
2.838928125E0,-5.502929091E-1,1.011441040E1,2.224500775E-1
2.843890625E0,-5.000433922E-1,1.004980564E1,1.793831587E-1
2.848854688E0,-4.402170777E-1,9.989988327E0,7.648995519E-2
2.853817188E0,-4.234672487E-1,1.001391125E1,2.863465250E-2
2.858781250E0,-2.822955251E-1,9.973237991E0,-4.794149473E-2
2.863743750E0,-2.631514966E-1,9.968450546E0,-1.412483156E-1
2.868707813E0,-1.961521655E-1,9.884700775E0,-1.771422029E-1
2.873670313E0,-1.913637519E-1,9.879913330E0,-2.513145506E-1
2.878634375E0,-1.626524776E-1,9.932557106E0,-3.637845814E-1
2.883596875E0,-1.578640938E-1,9.963662148E0,-3.063524663E-1
2.888559375E0,-1.985463500E-1,9.975632668E0,-2.202090919E-1
2.893523438E0,-2.846897244E-1,9.889489174E0,-2.106418610E-1
2.898485938E0,-2.894685566E-1,1.000913239E1,-1.364599168E-1
2.903450000E0,-3.732177317E-1,1.001151752E1,-1.683602668E-2
2.908410938E0,-3.827945590E-1,9.980412483E0,-8.619125583E-5
2.913375000E0,-3.899675608E-1,9.966055870E0,-2.879745886E-2
2.918339063E0,-3.229682446E-1,1.004980564E1,2.384624816E-2
2.923301563E0,-2.966511548E-1,1.003305531E1,-9.819100052E-2
2.928265625E0,-3.134010136E-1,1.000913239E1,4.299028218E-2
2.933228125E0,-1.889695525E-1,9.970844269E0,6.930734962E-2
2.938190625E0,-5.736507475E-2,9.961267471E0,1.243452579E-1
2.943154688E0,-3.104800731E-2,9.884700775E0,1.482776999E-1
2.948117188E0,-5.019204319E-2,9.887095451E0,1.865562052E-1
2.953081250E0,4.845864139E-3,9.846412659E0,1.243452579E-1
2.958043750E0,6.227797270E-2,9.863162994E0,1.937388033E-1
2.963007813E0,6.945100427E-2,9.841633797E0,2.559497356E-1
2.967970313E0,6.945100427E-2,9.753096581E0,1.961330026E-1
2.972932813E0,1.005468965E-1,9.748308182E0,2.391999066E-1
2.977895313E0,1.196909323E-1,9.745914459E0,2.798821628E-1
2.982859375E0,2.010459006E-1,9.707635880E0,2.942378223E-1
2.987821875E0,2.034401149E-1,9.695664406E0,4.378037155E-1
2.992785938E0,1.723346412E-1,9.686098099E0,3.875542283E-1
2.997748438E0,1.531905979E-1,9.705241203E0,4.258422852E-1
3.002712500E0,1.819018722E-1,9.647809982E0,3.660160005E-1
3.007676563E0,1.699404269E-1,9.710029602E0,3.827657998E-1
3.012639063E0,2.106227130E-1,9.690885544E0,4.114866555E-1
3.017601563E0,1.651520431E-1,9.669347763E0,4.378037155E-1
3.022564063E0,9.098923951E-2,9.705241203E0,5.024088621E-1
3.027528125E0,7.902780920E-2,9.645415306E0,3.325162828E-1
3.032490625E0,6.945100427E-2,9.671741486E0,5.239470601E-1
3.037454688E0,4.791276529E-2,9.736346245E0,4.593419433E-1
3.042417188E0,-2.147120051E-2,9.717203140E0,4.425921440E-1
3.047379688E0,-4.061523825E-2,9.698058128E0,3.085934520E-1
3.052343750E0,-1.746139228E-1,9.731558800E0,1.889503896E-1
3.057306250E0,-2.822955251E-1,9.729164124E0,1.841619909E-1
3.062270313E0,-3.612563312E-1,9.702846527E0,1.291336715E-1
3.067232813E0,-4.306498468E-1,9.796163559E0,9.563399851E-2
3.072196875E0,-4.761109650E-1,9.808135033E0,1.267394572E-1
3.077159375E0,-3.947559893E-1,9.870346069E0,1.363066882E-1
3.082123438E0,-4.545727372E-1,9.841633797E0,-6.469132751E-2
3.087085938E0,-4.019385576E-1,9.853595734E0,-1.125466302E-1
3.092048438E0,-4.091115892E-1,9.844018936E0,-8.144116402E-2
3.097012500E0,-3.947559893E-1,9.846412659E0,-2.393531352E-1
3.101976563E0,-4.258614480E-1,9.848807335E0,-2.919968367E-1
3.106939063E0,-4.665437341E-1,9.836845398E0,-3.733518124E-1
3.111901563E0,-4.497938752E-1,9.836845398E0,-4.140340984E-1
3.116864063E0,-3.851887584E-1,9.839240074E0,-3.566019833E-1
3.121828125E0,-3.971501887E-1,9.858384132E0,-3.350637555E-1
3.126790625E0,-3.684388995E-1,9.867951393E0,-2.919968367E-1
3.131754688E0,-4.067174196E-1,9.884700775E0,-2.106418610E-1
3.136717188E0,-4.354382753E-1,9.956489563E0,-2.608913481E-1
3.141681250E0,-5.024375916E-1,9.946911812E0,-2.656797767E-1
3.146643750E0,-4.689379334E-1,9.956489563E0,-3.637845814E-1
3.151606250E0,-5.813983679E-1,9.932557106E0,-3.254965246E-1
3.156570313E0,-5.167931914E-1,9.978017807E0,-3.661787808E-1
3.161532813E0,-5.646485090E-1,9.978017807E0,-2.561029792E-1
3.166496875E0,-5.000433922E-1,9.994767189E0,-1.962862462E-1
3.171459375E0,-5.407160521E-1,9.989988327E0,-1.603923589E-1
3.176423438E0,-5.359276533E-1,9.958883286E0,6.213432178E-2
3.181385938E0,-5.837925673E-1,1.002826691E1,-1.053640321E-1
3.186348438E0,-5.933598280E-1,1.007851696E1,8.127836138E-2
3.191312500E0,-4.641495049E-1,9.980412483E0,6.213432178E-2
3.196275000E0,-4.210730195E-1,1.000195026E1,8.605717868E-2
3.201239063E0,-3.684388995E-1,1.011680508E1,-8.619125583E-5
3.206201563E0,-2.894685566E-1,9.970844269E0,2.624044940E-2
3.211165625E0,-2.296518236E-1,1.000195026E1,-7.665276527E-2
3.216128125E0,-1.841907203E-1,9.992383003E0,6.213432178E-2
3.221090625E0,-1.602582783E-1,9.975632668E0,6.691315025E-2
3.226054688E0,-9.565314651E-2,9.951700211E0,1.099896207E-1
3.231017188E0,-3.583640978E-2,9.958883286E0,9.490615688E-3
3.235981250E0,4.313393682E-2,9.911018372E0,4.777869210E-2
3.240943750E0,7.240065839E-3,9.899056435E0,2.624044940E-2
3.245906250E0,4.845864139E-3,9.903844833E0,4.299028218E-2
3.250870313E0,-8.608591557E-2,9.963662148E0,-7.186435908E-2
3.255832813E0,-8.369170874E-2,1.004741096E1,-5.511452630E-2
3.260796875E0,-7.411490381E-2,9.925383568E0,-6.708553433E-2
3.265759375E0,-7.890331000E-2,9.920595169E0,-1.922065206E-2
3.270723438E0,-1.554698795E-1,9.999555588E0,4.702212289E-3
3.275685938E0,-7.890331000E-2,1.000673866E1,1.291336715E-1
3.280648438E0,-7.890331000E-2,9.942132950E0,1.554507315E-1
3.285612500E0,-6.933607906E-2,9.927767754E0,2.439883053E-1
3.290575000E0,-1.339412183E-1,9.946911812E0,2.080944330E-1
3.295539063E0,-2.272576243E-1,9.970844269E0,2.463825047E-1
3.300501563E0,-2.990453839E-1,9.920595169E0,2.750937939E-1
3.305465625E0,-2.631514966E-1,9.954094887E0,3.373047113E-1
3.310428125E0,-2.942569554E-1,9.867951393E0,4.258422852E-1
3.315390625E0,-3.062183857E-1,9.820096016E0,4.258422852E-1
3.320354688E0,-3.134010136E-1,9.939739227E0,4.569477439E-1
3.325317188E0,-3.277566135E-1,9.851201057E0,4.545535445E-1
3.330281250E0,-2.799013257E-1,9.879913330E0,4.378037155E-1
3.335243750E0,-2.942569554E-1,9.899056435E0,4.880532324E-1
3.340207813E0,-3.157951832E-1,9.867951393E0,4.569477439E-1
3.345170313E0,-2.535746992E-1,9.920595169E0,5.048030615E-1
3.350132813E0,-2.990453839E-1,9.894268990E0,4.473805130E-1
3.355096875E0,-2.511900663E-1,9.913412094E0,4.665149748E-1
3.360059375E0,-2.559688985E-1,9.894268990E0,4.282364845E-1
3.365023438E0,-2.248634249E-1,9.903844833E0,3.373047113E-1
3.369985938E0,-2.416132689E-1,9.860768318E0,3.157664835E-1
3.374950000E0,-2.392190546E-1,9.865556717E0,2.583439350E-1
3.379912500E0,-1.961521655E-1,9.925383568E0,2.368056923E-1
3.384875000E0,-1.794023216E-1,9.891883850E0,1.913446039E-1
3.389839063E0,-3.134010136E-1,9.858384132E0,1.769889742E-1
3.394801563E0,-3.492948711E-1,9.891883850E0,8.366298676E-2
3.399765625E0,-3.373238444E-1,9.858384132E0,1.427901909E-2
3.404728125E0,-3.564679027E-1,9.915806770E0,-6.708553433E-2
3.409692188E0,-3.588621020E-1,9.875133514E0,-2.178148925E-1
3.414654688E0,-4.928607643E-1,9.855990410E0,-2.991794348E-1
3.419617188E0,-5.407160521E-1,9.844018936E0,-3.350637555E-1
3.424581250E0,-5.096106529E-1,9.832057953E0,-3.972842395E-1
3.429543750E0,-4.785051644E-1,9.853595734E0,-2.776412070E-1
3.434507813E0,-4.737167358E-1,9.860768318E0,-3.159292936E-1
3.439470313E0,-4.067174196E-1,9.829663277E0,-3.733518124E-1
3.444434375E0,-4.689379334E-1,9.841633797E0,-4.571009874E-1
3.449396875E0,-4.019385576E-1,9.841633797E0,-5.456385612E-1
3.454359375E0,-3.804003298E-1,9.896661758E0,-6.030610800E-1
3.459323438E0,-4.521880746E-1,9.860768318E0,-6.844160557E-1
3.464285938E0,-4.785051644E-1,9.822490692E0,-6.030610800E-1
3.469250000E0,-4.641495049E-1,9.872738838E0,-6.628873944E-1
3.474212500E0,-4.019385576E-1,9.829663277E0,-5.623884201E-1
3.479176563E0,-3.947559893E-1,9.863162994E0,-5.145331025E-1
3.484139063E0,-3.205740452E-1,9.820096016E0,-5.217061043E-1
3.489101563E0,-2.344402373E-1,9.836845398E0,-4.212071300E-1
3.494065625E0,-1.698351055E-1,9.863162994E0,-3.901016414E-1
3.499028125E0,-1.578640938E-1,9.820096016E0,-4.092456996E-1
3.503992188E0,-2.272576243E-1,9.777029037E0,-2.656797767E-1
3.508954688E0,-1.698351055E-1,9.805740356E0,-2.249974906E-1
3.513918750E0,-2.152961940E-1,9.796163559E0,-1.532097608E-1
3.518881250E0,-1.937579513E-1,9.762663841E0,-8.383536339E-2
3.523843750E0,-1.770081222E-1,9.791384697E0,-1.204762235E-2
3.528807813E0,-2.129019946E-1,9.791384697E0,5.495171621E-2
3.533770313E0,-2.368248552E-1,9.822490692E0,4.538448900E-2
3.538734375E0,-2.822955251E-1,9.793779373E0,8.605717868E-2
3.543696875E0,-2.033347636E-1,9.748308182E0,2.384624816E-2
3.548660938E0,-2.009405643E-1,9.841633797E0,9.490615688E-3
3.553623438E0,-1.506910622E-1,9.887095451E0,3.580768034E-2
3.558585938E0,-2.392190546E-1,9.841633797E0,-1.444182452E-2
3.563550000E0,-2.511900663E-1,9.875133514E0,7.170155644E-2
3.568512500E0,-3.014395833E-1,9.851201057E0,2.344114929E-1
3.573476563E0,-3.277566135E-1,9.870346069E0,2.009118348E-1
3.578439063E0,-3.421122730E-1,9.872738838E0,1.243452579E-1
3.583403125E0,-3.708235621E-1,9.848807335E0,1.363066882E-1
3.588365625E0,-3.947559893E-1,9.829663277E0,2.009118348E-1
3.593328125E0,-2.559688985E-1,9.784202576E0,1.434893012E-1
3.598292188E0,-2.009405643E-1,9.884700775E0,1.315278560E-1
3.603254688E0,-1.506910622E-1,9.844018936E0,9.323979169E-2
3.608218750E0,-1.124029830E-1,9.851201057E0,1.793831587E-1
3.613181250E0,-1.817965209E-1,9.867951393E0,2.224500775E-1
3.618143750E0,-1.770081222E-1,9.829663277E0,2.439883053E-1
3.623107813E0,-2.176903933E-1,9.846412659E0,2.631323636E-1
3.628070313E0,-1.411142498E-1,9.846412659E0,3.349105120E-1
3.633034375E0,-7.890331000E-2,9.834450722E0,3.205548823E-1
3.637996875E0,-7.115567569E-3,9.913412094E0,3.803811967E-1
3.642959375E0,3.595133126E-2,9.863162994E0,3.516603410E-1
3.647923438E0,4.791276529E-2,9.870346069E0,5.335143209E-1
3.652885938E0,1.029410958E-1,9.767452240E0,4.736976027E-1
3.657850000E0,1.460079998E-1,9.772240639E0,5.622351766E-1
3.662812500E0,1.531905979E-1,9.769846916E0,4.258422852E-1
3.667776563E0,5.988377333E-2,9.820096016E0,4.952358305E-1
3.672739063E0,1.268735379E-1,9.836845398E0,4.665149748E-1
3.677701563E0,8.859504014E-2,9.769846916E0,3.564487696E-1
3.682665625E0,4.073973373E-2,9.784202576E0,3.612371385E-1
3.687628125E0,-1.429817267E-2,9.779414177E0,3.349105120E-1
3.692592188E0,-2.865380608E-2,9.839240074E0,2.774879634E-1
3.697554688E0,-4.721365869E-3,9.839240074E0,2.080944330E-1
3.702518750E0,-7.890331000E-2,9.875133514E0,2.200558633E-1
3.707481250E0,-4.061523825E-2,9.844018936E0,1.506623179E-1
3.712443750E0,-4.779784381E-2,9.865556717E0,1.291336715E-1
3.717407813E0,-2.625960298E-2,9.846412659E0,1.506623179E-1
3.722370313E0,-8.847054094E-2,9.882307053E0,1.075954214E-1
3.727334375E0,-1.435084492E-1,9.879913330E0,4.538448900E-2
3.732296875E0,-2.894685566E-1,9.853595734E0,9.490615688E-3
3.737260938E0,-2.368248552E-1,9.851201057E0,-6.708553433E-2
3.742223438E0,-1.865849346E-1,9.867951393E0,-6.708553433E-2
3.747185938E0,-1.506910622E-1,9.855990410E0,-1.683602668E-2
3.752150000E0,-1.626524776E-1,9.884700775E0,1.188481692E-2
3.757112500E0,-1.339412183E-1,9.942132950E0,5.974011868E-2
3.762076563E0,-3.583640978E-2,9.961267471E0,3.820187971E-2
3.767039063E0,-4.300943762E-2,9.973237991E0,5.255751312E-2
3.772003125E0,-1.554698795E-1,9.939739227E0,1.578449309E-1
3.776965625E0,-1.267586201E-1,9.937344551E0,2.152674496E-1
3.781929688E0,-1.817965209E-1,9.956489563E0,2.248442620E-1
3.786892188E0,-2.272576243E-1,9.901451111E0,2.176616639E-1
3.791854688E0,-1.363354176E-1,9.937344551E0,2.344114929E-1
3.796818750E0,-1.243644133E-1,9.915806770E0,2.152674496E-1
3.801781250E0,-1.435084492E-1,9.951700211E0,2.152674496E-1
3.806745313E0,-8.608591557E-2,9.922988892E0,3.038050532E-1
3.811707813E0,-2.336740959E-3,9.911018372E0,2.774879634E-1
3.816670313E0,7.902780920E-2,9.853595734E0,2.918435931E-1
3.821634375E0,5.030696467E-2,9.894268990E0,2.846610248E-1
3.826596875E0,-1.190397050E-2,9.891883850E0,3.085934520E-1
3.831560938E0,-4.300943762E-2,9.906239510E0,2.966320217E-1
3.836523438E0,-1.674408913E-1,9.865556717E0,3.109876513E-1
3.841487500E0,-2.440074682E-1,9.865556717E0,3.349105120E-1
3.846450000E0,-2.487958670E-1,9.901451111E0,3.660160005E-1
3.851412500E0,-1.985463500E-1,9.918201447E0,2.607381344E-1
3.856376563E0,-1.794023216E-1,9.853595734E0,2.511613369E-1
3.861339063E0,-1.291528195E-1,9.901451111E0,2.535555363E-1
3.866303125E0,-1.937579513E-1,9.889489174E0,1.243452579E-1
3.871265625E0,-2.464016527E-1,9.899056435E0,1.123838276E-1
3.876229688E0,-2.583630979E-1,9.894268990E0,1.339124888E-1
3.881192188E0,-3.229682446E-1,9.853595734E0,1.004128158E-1
3.886154688E0,-2.918627560E-1,9.901451111E0,7.888415456E-2
3.891118750E0,-3.229682446E-1,9.887095451E0,6.691315025E-2
3.896081250E0,-2.918627560E-1,9.836845398E0,8.845138550E-2
3.901045313E0,-2.942569554E-1,9.879913330E0,-8.619125583E-5
3.906007813E0,-2.344402373E-1,9.877518654E0,-7.259219419E-3
3.910970313E0,-1.770081222E-1,9.820096016E0,8.845138550E-2
3.915934375E0,-9.325893968E-2,9.860768318E0,-7.259219419E-3
3.920896875E0,-6.215347722E-2,9.853595734E0,7.409575582E-2
3.925860938E0,-7.115567569E-3,9.858384132E0,7.888415456E-2
3.930823438E0,1.202846877E-2,9.896661758E0,1.698063612E-1
3.935787500E0,1.202846877E-2,9.939739227E0,2.033060342E-1
3.940750000E0,-8.608591557E-2,9.872738838E0,2.631323636E-1
3.945712500E0,-1.841907203E-1,9.911018372E0,2.511613369E-1
3.950676563E0,-2.057193965E-1,9.889489174E0,1.817677915E-1
3.955639063E0,-2.440074682E-1,9.901451111E0,1.961330026E-1
3.960603125E0,-3.492948711E-1,9.887095451E0,3.684101999E-1
3.965565625E0,-3.397180736E-1,9.925383568E0,3.755927682E-1
3.970529688E0,-4.186884165E-1,9.944517136E0,3.564487696E-1
3.975492188E0,-3.899675608E-1,9.934949875E0,3.444873095E-1
3.980454688E0,-3.540737033E-1,9.903844833E0,3.085934520E-1
3.985418750E0,-3.301508427E-1,9.956489563E0,3.301316798E-1
3.990381250E0,-3.062183857E-1,9.944517136E0,3.420931101E-1
3.995345313E0,-3.157951832E-1,9.966055870E0,3.229490519E-1
4.000307813E0,-2.631514966E-1,9.987594604E0,2.870551944E-1
4.005271875E0,-2.176903933E-1,9.994767189E0,2.894493937E-1
4.010234375E0,-2.727187276E-1,9.987594604E0,2.798821628E-1
4.015196875E0,-1.841907203E-1,1.000913239E1,2.248442620E-1
4.020160938E0,-1.985463500E-1,1.000195026E1,2.415941060E-1
4.025123438E0,-2.009405643E-1,9.958883286E0,1.865562052E-1
4.030087500E0,-1.315470189E-1,9.906239510E0,1.052012220E-1
4.035050000E0,-1.219702139E-1,9.887095451E0,8.605717868E-2
4.040014063E0,-7.172070444E-2,9.956489563E0,7.409575582E-2
4.044976563E0,-6.694187969E-2,9.946911812E0,3.580768034E-2
4.049939063E0,-4.779784381E-2,9.879913330E0,2.863465250E-2
4.054901563E0,-6.694187969E-2,9.858384132E0,-2.161485329E-2
4.059865625E0,-4.061523825E-2,9.887095451E0,7.888415456E-2
4.064829688E0,-5.736507475E-2,9.970844269E0,1.188481692E-2
4.069792188E0,-1.554698795E-1,9.911018372E0,-1.204762235E-2
4.074756250E0,-2.248634249E-1,9.920595169E0,-7.904696465E-2
4.079718750E0,-2.416132689E-1,9.872738838E0,-6.469132751E-2
4.084681250E0,-3.277566135E-1,9.913412094E0,-9.653421119E-3
4.089645313E0,-3.110068142E-1,9.922988892E0,1.243452579E-1
4.094607813E0,-2.846897244E-1,9.913412094E0,1.434893012E-1
4.099570313E0,-3.205740452E-1,9.896661758E0,2.128828466E-1
4.104534375E0,-3.588621020E-1,9.855990410E0,3.061992526E-1
4.109498438E0,-3.301508427E-1,9.855990410E0,4.066982567E-1
4.114460938E0,-2.631514966E-1,9.841633797E0,3.803811967E-1
4.119423438E0,-2.583630979E-1,9.817702293E0,4.114866555E-1
4.124385938E0,-3.253624141E-1,9.836845398E0,3.301316798E-1
4.129350000E0,-3.253624141E-1,9.805740356E0,4.090924561E-1
4.134312500E0,-3.469006717E-1,9.822490692E0,4.090924561E-1
4.139276563E0,-3.181893826E-1,9.731558800E0,3.827657998E-1
4.144239063E0,-3.301508427E-1,9.726778984E0,3.708043694E-1
4.149201563E0,-3.373238444E-1,9.726778984E0,2.750937939E-1
4.154165625E0,-3.732177317E-1,9.700452805E0,2.894493937E-1
4.159128125E0,-3.277566135E-1,9.741134644E0,2.391999066E-1
4.164090625E0,-2.344402373E-1,9.705241203E0,1.626333296E-1
4.169054688E0,-1.794023216E-1,9.736346245E0,2.104886323E-1
4.174017188E0,-5.258624628E-2,9.686098099E0,1.099896207E-1
4.178981250E0,5.509537086E-2,9.654992104E0,5.255751312E-2
4.183943750E0,5.988377333E-2,9.643030167E0,4.777869210E-2
4.188907813E0,5.748957023E-2,9.599953651E0,-2.640325576E-2
4.193870313E0,1.920149848E-2,9.544916153E0,-6.229712814E-2
4.198834375E0,5.509537086E-2,9.528165817E0,-2.058534473E-1
4.203796875E0,7.184520364E-2,9.516204834E0,-2.704585791E-1
4.208759375E0,9.338344634E-2,9.499455452E0,-3.326790929E-1
4.213723438E0,4.845864139E-3,9.544916153E0,-2.345647216E-1
4.218687500E0,-4.779784381E-2,9.482705116E0,-3.589961827E-1
4.223650000E0,-1.195855886E-1,9.542531013E0,-2.680643797E-1
4.228612500E0,-2.009405643E-1,9.494675636E0,-2.321801037E-1
4.233575000E0,-3.469006717E-1,9.477926254E0,-1.436425298E-1
4.238539063E0,-3.947559893E-1,9.427677155E0,-2.178148925E-1
4.243501563E0,-4.402170777E-1,9.465954781E0,-1.819306016E-1
4.248465625E0,-4.019385576E-1,9.437244415E0,-2.513145506E-1
4.253428125E0,-3.564679027E-1,9.427677155E0,-2.273916900E-1
4.258392188E0,-3.564679027E-1,9.370244980E0,-1.914978325E-1
4.263354688E0,-3.756119311E-1,9.355888367E0,-1.795363873E-1
4.268317188E0,-3.325450420E-1,9.329562187E0,-1.723537892E-1
4.273281250E0,-2.487958670E-1,9.296062469E0,-1.986804307E-1
4.278243750E0,-2.224692255E-1,9.360677719E0,-1.029698253E-1
4.283207813E0,-1.770081222E-1,9.319994926E0,2.384624816E-2
4.288170313E0,-9.565314651E-2,9.300851822E0,1.427901909E-2
4.293134375E0,-1.339412183E-1,9.293677330E0,1.666364260E-2
4.298096875E0,-1.363354176E-1,9.276928902E0,7.096413523E-3
4.303059375E0,-1.626524776E-1,9.281706810E0,-2.400905453E-2
4.308023438E0,-1.770081222E-1,9.219495773E0,-7.425855845E-2
4.312985938E0,-1.291528195E-1,9.288889885E0,-3.836468980E-2
4.317950000E0,-6.933607906E-2,9.241034508E0,-9.579680115E-2
4.322912500E0,1.202846877E-2,9.183602333E0,-4.554729536E-2
4.327876563E0,1.053352952E-1,9.169246674E0,-4.554729536E-2
4.332839063E0,1.460079998E-1,9.104641914E0,-6.947015226E-2
4.337803125E0,8.380663395E-2,9.111824036E0,-5.750872567E-2
4.342765625E0,7.423940301E-2,9.032853127E0,-1.005852073E-1
4.347728125E0,1.220851392E-1,9.130958557E0,-1.444182452E-2
4.352692188E0,1.316523552E-1,9.099853516E0,5.016331375E-2
4.357656250E0,1.268735379E-1,9.068748474E0,-2.640325576E-2
4.362617188E0,1.795076579E-1,9.068748474E0,1.666364260E-2
4.367581250E0,2.369397730E-1,9.018498421E0,1.188481692E-2
4.372543750E0,2.536896169E-1,8.996959686E0,-6.708553433E-2
4.377507813E0,2.560837865E-1,8.977825165E0,-9.340259433E-2
4.382470313E0,2.106227130E-1,9.032853127E0,-5.511452630E-2
4.387432813E0,2.560837865E-1,9.047208786E0,9.084559232E-2
4.392396875E0,2.249783427E-1,9.147707939E0,1.698063612E-1
4.397359375E0,2.106227130E-1,9.142930031E0,2.296326756E-1
4.402323438E0,1.579789966E-1,9.193179131E0,1.913446039E-1
4.407285938E0,1.699404269E-1,9.236246109E0,2.774879634E-1
4.412250000E0,1.101237014E-1,9.308033943E0,2.655169666E-1
4.417212500E0,3.116292879E-2,9.229063034E0,2.224500775E-1
4.422176563E0,-5.736507475E-2,9.322389603E0,2.344114929E-1
4.427139063E0,-1.650466919E-1,9.372638702E0,2.128828466E-1
4.432101563E0,-2.248634249E-1,9.401350975E0,1.434893012E-1
4.437065625E0,-3.277566135E-1,9.351100922E0,1.075954214E-1
4.442028125E0,-3.014395833E-1,9.379811287E0,8.605717868E-2
4.446992188E0,-3.492948711E-1,9.446811676E0,8.366298676E-2
4.451954688E0,-3.157951832E-1,9.463561058E0,5.495171621E-2
4.456917188E0,-3.205740452E-1,9.439639091E0,-3.836468980E-2
4.461881250E0,-2.727187276E-1,9.415705681E0,6.691315025E-2
4.466843750E0,-1.459026486E-1,9.413311958E0,-2.470816020E-3
4.471807813E0,-1.052203774E-1,9.480310440E0,-6.708553433E-2
4.476770313E0,-7.890331000E-2,9.487493515E0,-6.708553433E-2
4.481734375E0,-7.172070444E-2,9.499455452E0,-5.033569783E-2
4.486696875E0,-6.454767287E-2,9.520993233E0,-1.388541311E-1
4.491660938E0,-1.243644133E-1,9.432456017E0,-9.340259433E-2
4.496623438E0,-3.344221041E-2,9.482705116E0,-7.904696465E-2
4.501585938E0,-1.669237576E-2,9.458782196E0,-7.904696465E-2
4.506550000E0,7.663360238E-2,9.482705116E0,-7.186435908E-2
4.511512500E0,8.380663395E-2,9.439639091E0,3.580768034E-2
4.516476563E0,4.791276529E-2,9.475532532E0,8.366298676E-2
4.521439063E0,4.791276529E-2,9.444426537E0,1.554507315E-1
4.526403125E0,9.634267539E-3,9.394176483E0,3.181606829E-1
4.531365625E0,1.441309415E-2,9.446811676E0,2.559497356E-1
4.536328125E0,5.509537086E-2,9.386994362E0,2.248442620E-1
4.541292188E0,-2.865380608E-2,9.367850304E0,3.588429689E-1
4.546254688E0,1.920149848E-2,9.370244980E0,3.923426270E-1
4.551218750E0,2.159569971E-2,9.331956863E0,4.976204634E-1
4.556181250E0,8.859504014E-2,9.322389603E0,5.191587210E-1
4.561145313E0,8.859504014E-2,9.286495209E0,5.335143209E-1
4.566107813E0,1.699404269E-1,9.284101486E0,4.880532324E-1
4.571070313E0,1.029410958E-1,9.217101097E0,4.689091742E-1
4.576034375E0,5.509537086E-2,9.255389214E0,5.191587210E-1
4.580996875E0,7.902780920E-2,9.262563705E0,5.095914602E-1
4.585960938E0,1.819018722E-1,9.226678848E0,4.473805130E-1
4.590923438E0,1.101237014E-1,9.169246674E0,3.875542283E-1
4.595887500E0,1.484021842E-1,9.202746391E0,3.540545404E-1
4.600850000E0,4.552813992E-2,9.178823471E0,1.410950869E-1
4.605812500E0,8.859504014E-2,9.159679413E0,7.170155644E-2
4.610776563E0,3.595133126E-2,9.195572853E0,6.213432178E-2
4.615739063E0,5.748957023E-2,9.118996620E0,-1.460367292E-1
4.620703125E0,8.141243458E-2,9.090286255E0,-1.938920319E-1
4.625665625E0,1.388349682E-1,9.099853516E0,-3.015640676E-1
4.630629688E0,2.225841433E-1,9.051998138E0,-4.882064462E-1
4.635592188E0,2.680452466E-1,9.061573982E0,-5.336675644E-1
4.640554688E0,2.776220441E-1,9.035247803E0,-6.652815938E-1
4.645518750E0,2.393339872E-1,9.051998138E0,-7.920976877E-1
4.650481250E0,1.125083268E-1,9.030460358E0,-6.963871121E-1
4.655445313E0,1.202846877E-2,9.135746956E0,-7.514154315E-1
4.660407813E0,-7.172070444E-2,9.142930031E0,-6.293877363E-1
4.665371875E0,-1.195855886E-1,9.174035072E0,-5.839170814E-1
4.670334375E0,-3.014395833E-1,9.130958557E0,-5.839170814E-1
4.675296875E0,-2.894685566E-1,9.128574371E0,-4.571009874E-1
4.680260938E0,-3.708235621E-1,9.133352280E0,-4.929948747E-1
4.685223438E0,-4.162942171E-1,9.212313652E0,-4.164282978E-1
4.690187500E0,-3.564679027E-1,9.133352280E0,-3.901016414E-1
4.695150000E0,-4.234672487E-1,9.212313652E0,-3.350637555E-1
4.700112500E0,-3.157951832E-1,9.174035072E0,-2.465357333E-1
4.705076563E0,-3.038241863E-1,9.209928513E0,-1.675653905E-1
4.710039063E0,-3.277566135E-1,9.188390732E0,-1.795363873E-1
4.715003125E0,-2.559688985E-1,9.183602333E0,2.624044940E-2
4.719965625E0,-1.985463500E-1,9.190785408E0,1.195568517E-1
4.724929688E0,-6.933607906E-2,9.185996056E0,1.243452579E-1
4.729892188E0,-4.779784381E-2,9.159679413E0,1.195568517E-1
4.734854688E0,-9.565314651E-2,9.181207657E0,9.323979169E-2
4.739818750E0,-4.540364072E-2,9.193179131E0,8.366298676E-2
4.744781250E0,8.141243458E-2,9.176429749E0,1.458835006E-1
4.749745313E0,8.859504014E-2,9.181207657E0,1.602391303E-1
4.754707813E0,1.627578288E-1,9.166852951E0,1.698063612E-1
4.759671875E0,1.412291676E-1,9.169246674E0,2.559497356E-1
4.764634375E0,1.914786696E-1,9.202746391E0,3.277374804E-1
4.769596875E0,1.723346412E-1,9.138141632E0,2.248442620E-1
4.774560938E0,7.184520364E-2,9.231457710E0,1.530565321E-1
4.779523438E0,-4.779784381E-2,9.300851822E0,1.554507315E-1
4.784487500E0,-1.171913818E-1,9.341533661E0,1.315278560E-1
4.789450000E0,-1.339412183E-1,9.379811287E0,-1.204762235E-2
4.794414063E0,-1.387200505E-1,9.353494644E0,1.427901909E-2
4.799376563E0,-1.147971824E-1,9.264957428E0,-1.173350364E-1
4.804339063E0,-6.933607906E-2,9.324783325E0,-1.771422029E-1
4.809303125E0,-2.625960298E-2,9.233851433E0,-2.130360752E-1
4.814265625E0,-5.258624628E-2,9.310427666E0,-2.034592628E-1
4.819229688E0,-5.497087166E-2,9.286495209E0,-2.369589210E-1
4.824192188E0,-1.554698795E-1,9.291284561E0,-2.249974906E-1
4.829156250E0,-2.296518236E-1,9.250601768E0,-3.231022954E-1
4.834118750E0,-2.679399252E-1,9.264957428E0,-4.116398990E-1
4.839081250E0,-3.516891003E-1,9.329562187E0,-3.302849233E-1
4.844043750E0,-3.636505008E-1,9.343927383E0,-5.169177055E-1
4.849007813E0,-3.110068142E-1,9.365455627E0,-4.427453578E-1
4.853971875E0,-2.727187276E-1,9.269745827E0,-3.781402409E-1
4.858934375E0,-2.487958670E-1,9.281706810E0,-3.015640676E-1
4.863896875E0,-1.100087836E-1,9.276928902E0,-2.943910658E-1
4.868860938E0,-5.019204319E-2,9.308033943E0,-3.398521543E-1
4.873823438E0,-3.344221041E-2,9.324783325E0,-2.561029792E-1
4.878785938E0,-2.147120051E-2,9.315207481E0,-2.776412070E-1
4.883750000E0,-3.583640978E-2,9.279312134E0,-1.651807725E-1
4.888714063E0,-1.429817267E-2,9.377428055E0,-1.340752989E-1
4.893676563E0,7.902780920E-2,9.226678848E0,-3.119166009E-2
4.898639063E0,4.073973373E-2,9.336745262E0,-1.683602668E-2
4.903603125E0,4.073973373E-2,9.300851822E0,-2.161485329E-2
4.908565625E0,-4.779784381E-2,9.327178001E0,2.624044940E-2
4.913529688E0,-2.625960298E-2,9.355888367E0,1.905784570E-2
4.918492188E0,-1.004415527E-1,9.291284561E0,6.213432178E-2
4.923456250E0,-9.565314651E-2,9.324783325E0,6.691315025E-2
4.928418750E0,-1.722197086E-1,9.303245544E0,2.384624816E-2
4.933381250E0,-1.770081222E-1,9.274534225E0,-8.621999621E-2
4.938345313E0,-2.344402373E-1,9.336745262E0,-5.033569783E-2
4.943307813E0,-2.296518236E-1,9.324783325E0,-1.173350364E-1
4.948271875E0,-1.817965209E-1,9.341533661E0,-8.621999621E-2
4.953234375E0,-1.602582783E-1,9.343927383E0,-1.077582315E-1
4.958198438E0,-9.565314651E-2,9.384600639E0,-5.511452630E-2
4.963160938E0,-1.865849346E-1,9.334350586E0,-1.484309286E-1
4.968123438E0,-2.152961940E-1,9.375033379E0,-1.771422029E-1
4.973087500E0,-2.176903933E-1,9.315207481E0,-1.173350364E-1
4.978050000E0,-2.942569554E-1,9.348706245E0,-1.245080680E-1
4.983014063E0,-3.612563312E-1,9.401350975E0,-1.603923589E-1
4.987976563E0,-4.019385576E-1,9.389389038E0,-6.708553433E-2
4.992939063E0,-4.713225365E-1,9.375033379E0,7.096413523E-3
4.997903125E0,-5.096106529E-1,9.391782761E0,-3.597048670E-2
5.002867188E0,-4.689379334E-1,9.434849739E0,-1.651807725E-1
5.007829688E0,-5.167931914E-1,9.418099403E0,-2.082476616E-1
5.012792188E0,-5.263604522E-1,9.442031860E0,-2.513145506E-1
5.017756250E0,-4.258614480E-1,9.473137856E0,-2.082476616E-1
5.022718750E0,-4.091115892E-1,9.470744133E0,-3.159292936E-1
5.027681250E0,-4.426112771E-1,9.477926254E0,-2.632855773E-1
5.032645313E0,-3.756119311E-1,9.444426537E0,-3.207080960E-1
5.037607813E0,-2.990453839E-1,9.446811676E0,-3.589961827E-1
5.042571875E0,-2.918627560E-1,9.439639091E0,-3.853132427E-1
5.047534375E0,-3.205740452E-1,9.427677155E0,-4.307839274E-1
5.052496875E0,-3.086126149E-1,9.432456017E0,-3.446405232E-1
5.057460938E0,-2.440074682E-1,9.418099403E0,-3.350637555E-1
5.062423438E0,-2.176903933E-1,9.403743744E0,-2.728528082E-1
5.067387500E0,-2.200750262E-1,9.418099403E0,-1.819306016E-1
5.072350000E0,-1.841907203E-1,9.396561623E0,-2.752470076E-1
5.077314063E0,-1.052203774E-1,9.439639091E0,-1.891036183E-1
5.082276563E0,-4.779784381E-2,9.422888756E0,-2.345647216E-1
5.087240625E0,4.791276529E-2,9.403743744E0,-1.699595898E-1
5.092203125E0,3.355713189E-2,9.377428055E0,-1.962862462E-1
5.097165625E0,5.746084207E-5,9.379811287E0,-2.321801037E-1
5.102129688E0,4.073973373E-2,9.375033379E0,-1.891036183E-1
5.107092188E0,-4.540364072E-2,9.382205963E0,-5.272032320E-2
5.112056250E0,-5.975927413E-2,9.291284561E0,-1.683602668E-2
5.117018750E0,-4.779784381E-2,9.319994926E0,4.299028218E-2
5.121982813E0,-1.674408913E-1,9.300851822E0,8.366298676E-2
5.126945313E0,-2.487958670E-1,9.293677330E0,3.820187971E-2
5.131907813E0,-3.110068142E-1,9.255389214E0,-7.186435908E-2
5.136871875E0,-2.918627560E-1,9.296062469E0,-1.603923589E-1
5.141834375E0,-2.464016527E-1,9.300851822E0,-1.053640321E-1
5.146798438E0,-2.990453839E-1,9.264957428E0,-1.579981595E-1
5.151760938E0,-2.129019946E-1,9.264957428E0,-1.914978325E-1
5.156725000E0,-1.794023216E-1,9.238640785E0,-6.708553433E-2
5.161687500E0,-9.565314651E-2,9.355888367E0,-9.100839496E-2
5.166650000E0,-1.698351055E-1,9.334350586E0,-1.444182452E-2
5.171614063E0,-1.028357521E-1,9.260178566E0,-1.412483156E-1
5.176576563E0,-8.847054094E-2,9.317600250E0,-1.843152195E-1
5.181540625E0,-3.583640978E-2,9.267351151E0,-2.202090919E-1
5.186503125E0,3.595133126E-2,9.231457710E0,-3.278907239E-1
5.191467188E0,1.412291676E-1,9.190785408E0,-3.231022954E-1
5.196429688E0,1.603731960E-1,9.200352669E0,-3.685634136E-1
5.201392188E0,1.651520431E-1,9.147707939E0,-3.015640676E-1
5.206356250E0,1.819018722E-1,9.169246674E0,-7.665276527E-2
5.211318750E0,1.986517012E-1,9.231457710E0,4.538448900E-2
5.216282813E0,9.098923951E-2,9.245813370E0,2.248442620E-1
5.221245313E0,2.638410218E-2,9.257783890E0,1.985176206E-1
5.226209375E0,-9.086474776E-2,9.248207092E0,2.655169666E-1
5.231171875E0,-1.315470189E-1,9.233851433E0,1.578449309E-1
5.236134375E0,-1.339412183E-1,9.243429184E0,2.145204693E-2
5.241096875E0,-1.435084492E-1,9.305639267E0,2.145204693E-2
5.246060938E0,-2.152961940E-1,9.185996056E0,2.308010357E-3
5.251025000E0,-2.248634249E-1,9.245813370E0,7.096413523E-3
5.255987500E0,-1.961521655E-1,9.214708328E0,1.410950869E-1
5.260950000E0,-2.272576243E-1,9.248207092E0,1.530565321E-1
5.265914063E0,-1.794023216E-1,9.231457710E0,1.482776999E-1
5.270876563E0,-1.889695525E-1,9.243429184E0,7.409575582E-2
5.275840625E0,-8.847054094E-2,9.207534790E0,-9.653421119E-3
5.280803125E0,-3.822103515E-2,9.207534790E0,-1.125466302E-1
5.285767188E0,-4.540364072E-2,9.193179131E0,-1.603923589E-1
5.290729688E0,5.030696467E-2,9.202746391E0,-1.938920319E-1
5.295693750E0,5.988377333E-2,9.241034508E0,-3.159292936E-1
5.300656250E0,2.159569971E-2,9.269745827E0,-4.236013293E-1
5.305618750E0,2.638410218E-2,9.219495773E0,-5.456385612E-1
5.310582813E0,7.240065839E-3,9.195572853E0,-5.456385612E-1
5.315545313E0,5.748957023E-2,9.164458275E0,-6.198109388E-1
5.320509375E0,-1.190397050E-2,9.214708328E0,-6.557048559E-1
5.325471875E0,-5.975927413E-2,9.214708328E0,-5.910996795E-1
5.330435938E0,-1.315470189E-1,9.252996445E0,-5.623884201E-1
5.335398438E0,-2.129019946E-1,9.274534225E0,-5.384559035E-1
5.340360938E0,-2.990453839E-1,9.315207481E0,-4.044572711E-1
5.345325000E0,-4.139000177E-1,9.334350586E0,-3.350637555E-1
5.350287500E0,-4.186884165E-1,9.348706245E0,-1.460367292E-1
5.355250000E0,-4.043232203E-1,9.422888756E0,4.777869210E-2
5.360214063E0,-3.756119311E-1,9.377428055E0,1.530565321E-1
5.365176563E0,-3.301508427E-1,9.351100922E0,1.458835006E-1
5.370140625E0,-2.368248552E-1,9.298457146E0,2.009118348E-1
5.375103125E0,-1.698351055E-1,9.296062469E0,1.339124888E-1
5.380065625E0,-5.975927413E-2,9.353494644E0,1.865562052E-1
5.385029688E0,4.073973373E-2,9.339139938E0,1.793831587E-1
5.389992188E0,-6.933607906E-2,9.360677719E0,2.128828466E-1
5.394954688E0,5.988377333E-2,9.281706810E0,2.846610248E-1
5.399918750E0,7.902780920E-2,9.351100922E0,3.277374804E-1
5.404881250E0,1.101237014E-1,9.384600639E0,3.947368264E-1
5.409845313E0,4.073973373E-2,9.415705681E0,3.899484277E-1
5.414807813E0,-5.975927413E-2,9.396561623E0,3.373047113E-1
5.419771875E0,-2.033347636E-1,9.494675636E0,1.650275439E-1
5.424734375E0,-2.846897244E-1,9.442031860E0,2.384624816E-2
5.429698438E0,-2.775071263E-1,9.475532532E0,6.691315025E-2
5.434660938E0,-3.588621020E-1,9.489887238E0,-1.101524383E-1
5.439623438E0,-3.995443583E-1,9.494675636E0,-1.292964667E-1
5.444587500E0,-4.497938752E-1,9.504242897E0,-1.316906810E-1
5.449551563E0,-4.282556474E-1,9.525781631E0,-1.771422029E-1
5.454512500E0,-3.851887584E-1,9.532955170E0,-1.867094338E-1
5.459476563E0,-3.540737033E-1,9.544916153E0,-2.154302746E-1
5.464439063E0,-3.301508427E-1,9.475532532E0,-2.489299327E-1
5.469403125E0,-3.014395833E-1,9.520993233E0,-2.489299327E-1
5.474365625E0,-2.583630979E-1,9.458782196E0,-2.393531352E-1
5.479328125E0,-1.865849346E-1,9.482705116E0,-2.584971488E-1
5.484292188E0,-1.459026486E-1,9.470744133E0,-1.508155465E-1
5.489256250E0,-1.004415527E-1,9.410926819E0,-1.101524383E-1
5.494218750E0,-8.129751682E-2,9.437244415E0,-1.914978325E-1
5.499181250E0,-6.215347722E-2,9.463561058E0,-1.986804307E-1
5.504145313E0,-8.369170874E-2,9.501849174E0,-1.651807725E-1
5.509109375E0,-1.626524776E-1,9.475532532E0,-1.197196692E-1
5.514071875E0,-1.243644133E-1,9.547310829E0,-9.100839496E-2
5.519034375E0,-2.272576243E-1,9.420494080E0,-3.836468980E-2
5.523998438E0,-1.841907203E-1,9.398956299E0,9.563399851E-2
5.528960938E0,-1.817965209E-1,9.453993797E0,5.974011868E-2
5.533923438E0,-1.339412183E-1,9.444426537E0,9.084559232E-2
5.538887500E0,-1.171913818E-1,9.501849174E0,1.410950869E-1
5.543850000E0,-1.602582783E-1,9.420494080E0,1.410950869E-1
5.548814063E0,-1.195855886E-1,9.413311958E0,2.080944330E-1
5.553776563E0,-1.076145768E-1,9.513810158E0,1.506623179E-1
5.558739063E0,-1.291528195E-1,9.442031860E0,2.224500775E-1
5.563703125E0,-1.650466919E-1,9.494675636E0,2.415941060E-1
5.568665625E0,-1.817965209E-1,9.480310440E0,2.368056923E-1
5.573629688E0,-2.535746992E-1,9.480310440E0,2.511613369E-1
5.578592188E0,-2.200750262E-1,9.463561058E0,2.607381344E-1
5.583556250E0,-1.985463500E-1,9.523387909E0,2.583439350E-1
5.588518750E0,-1.985463500E-1,9.532955170E0,2.535555363E-1
5.593482813E0,-2.009405643E-1,9.573637009E0,1.363066882E-1
5.598445313E0,-1.435084492E-1,9.535348892E0,9.084559232E-2
5.603407813E0,-7.890331000E-2,9.520993233E0,-1.444182452E-2
5.608371875E0,-4.779784381E-2,9.518598557E0,-9.100839496E-2
5.613334375E0,-5.975927413E-2,9.451600075E0,-1.579981595E-1
5.618296875E0,-3.583640978E-2,9.446811676E0,-1.532097608E-1
5.623260938E0,-2.147120051E-2,9.511416435E0,-1.556039602E-1
5.628225000E0,-9.086474776E-2,9.501849174E0,-1.914978325E-1
5.633187500E0,-1.459026486E-1,9.523387909E0,-1.723537892E-1
5.638150000E0,-2.272576243E-1,9.480310440E0,-2.321801037E-1
5.643114063E0,-2.822955251E-1,9.489887238E0,-2.226033062E-1
5.648076563E0,-3.110068142E-1,9.532955170E0,-1.819306016E-1
5.653039063E0,-3.349392414E-1,9.511416435E0,-2.273916900E-1
5.658003125E0,-4.091115892E-1,9.542531013E0,-1.197196692E-1
5.662965625E0,-3.708235621E-1,9.528165817E0,-1.683602668E-2
5.667929688E0,-3.277566135E-1,9.530560493E0,-2.161485329E-2
5.672892188E0,-3.110068142E-1,9.564060211E0,4.538448900E-2
5.677856250E0,-3.253624141E-1,9.537743568E0,9.563399851E-2
5.682818750E0,-3.995443583E-1,9.520993233E0,7.409575582E-2
5.687781250E0,-4.067174196E-1,9.485099792E0,2.624044940E-2
5.692745313E0,-3.708235621E-1,9.501849174E0,1.171626523E-1
5.697707813E0,-2.870743573E-1,9.520993233E0,1.219510585E-1
5.702671875E0,-2.655456960E-1,9.556886673E0,1.267394572E-1
5.707634375E0,-1.267586201E-1,9.509031296E0,6.691315025E-2
5.712598438E0,-1.482968628E-1,9.482705116E0,7.170155644E-2
5.717560938E0,-1.124029830E-1,9.485099792E0,1.913446039E-1
5.722523438E0,-1.459026486E-1,9.528165817E0,4.777869210E-2
5.727487500E0,-1.937579513E-1,9.408533096E0,9.323979169E-2
5.732450000E0,-8.847054094E-2,9.542531013E0,-6.947015226E-2
5.737412500E0,-3.344221041E-2,9.461176872E0,-7.665276527E-2
5.742376563E0,-8.129751682E-2,9.559281349E0,-9.579680115E-2
5.747340625E0,3.116292879E-2,9.556886673E0,-1.269022673E-1
5.752303125E0,3.116292879E-2,9.504242897E0,-1.914978325E-1
5.757265625E0,4.073973373E-2,9.520993233E0,-1.747480035E-1
5.762229688E0,-2.625960298E-2,9.475532532E0,-1.579981595E-1
5.767192188E0,1.441309415E-2,9.525781631E0,-1.173350364E-1
5.772156250E0,-2.865380608E-2,9.607136726E0,-9.579680115E-2
5.777118750E0,-5.736507475E-2,9.573637009E0,-2.470816020E-3
5.782081250E0,-1.171913818E-1,9.621492386E0,8.605717868E-2
5.787045313E0,-1.985463500E-1,9.599953651E0,7.648995519E-2
5.792007813E0,-1.913637519E-1,9.590386391E0,2.009118348E-1
5.796971875E0,-1.985463500E-1,9.626279831E0,2.511613369E-1
5.801934375E0,-2.679399252E-1,9.643030167E0,2.463825047E-1
5.806898438E0,-3.469006717E-1,9.590386391E0,3.875542283E-1
5.811860938E0,-3.014395833E-1,9.595166206E0,4.019098580E-1
5.816823438E0,-3.014395833E-1,9.652597427E0,4.425921440E-1
5.821787500E0,-3.540737033E-1,9.559281349E0,3.325162828E-1
5.826750000E0,-3.110068142E-1,9.592781067E0,3.373047113E-1
5.831714063E0,-3.205740452E-1,9.683703423E0,3.588429689E-1
5.836676563E0,-2.392190546E-1,9.645415306E0,2.152674496E-1
5.841640625E0,-1.746139228E-1,9.635848045E0,1.937388033E-1
5.846603125E0,-9.565314651E-2,9.681308746E0,1.722005606E-1
5.851565625E0,1.680729724E-2,9.664558411E0,2.128828466E-1
5.856529688E0,-4.779784381E-2,9.643030167E0,1.554507315E-1
5.861492188E0,6.227797270E-2,9.578415871E0,5.974011868E-2
5.866456250E0,3.116292879E-2,9.585598946E0,9.084559232E-2
5.871418750E0,9.634267539E-3,9.585598946E0,-1.444182452E-2
5.876382813E0,-7.650911063E-2,9.657385826E0,-1.101524383E-1
5.881345313E0,-2.625960298E-2,9.609530449E0,-4.794149473E-2
5.886307813E0,4.313393682E-2,9.556886673E0,-1.245080680E-1
5.891271875E0,2.451662440E-3,9.623887062E0,-1.149408370E-1
5.896234375E0,3.834553435E-2,9.597559929E0,-1.269022673E-1
5.901198438E0,5.270116776E-2,9.621492386E0,-2.130360752E-1
5.906160938E0,4.791276529E-2,9.657385826E0,-2.154302746E-1
5.911125000E0,5.270116776E-2,9.616703987E0,-1.938920319E-1
5.916087500E0,1.680729724E-2,9.619097710E0,-2.034592628E-1
5.921050000E0,-1.908657700E-2,9.700452805E0,-1.675653905E-1
5.926014063E0,-6.215347722E-2,9.623887062E0,-1.221138611E-1
5.930976563E0,-9.509769268E-3,9.659780502E0,-1.771422029E-1
5.935940625E0,-7.172070444E-2,9.645415306E0,-7.425855845E-2
5.940903125E0,-9.804734588E-2,9.688490868E0,4.777869210E-2
5.945867188E0,-9.325893968E-2,9.669347763E0,3.820187971E-2
5.950829688E0,-6.933607906E-2,9.765057564E0,1.147780269E-1
5.955792188E0,-6.694187969E-2,9.748308182E0,1.410950869E-1
5.960756250E0,-1.004415527E-1,9.779414177E0,2.296326756E-1
5.965718750E0,-1.602582783E-1,9.753096581E0,1.387009025E-1
5.970681250E0,-2.033347636E-1,9.772240639E0,1.769889742E-1
5.975645313E0,-1.578640938E-1,9.822490692E0,9.563399851E-2
5.980607813E0,-1.411142498E-1,9.839240074E0,1.506623179E-1
5.985571875E0,-1.698351055E-1,9.808135033E0,1.793831587E-1
5.990534375E0,-1.291528195E-1,9.858384132E0,2.822668254E-1
5.995498438E0,-1.052203774E-1,9.870346069E0,2.583439350E-1
6.000460938E0,-1.459026486E-1,9.872738838E0,1.865562052E-1
6.005423438E0,-1.459026486E-1,9.839240074E0,3.253432810E-1
6.010387500E0,-1.124029830E-1,9.920595169E0,1.267394572E-1
6.015351563E0,-6.215347722E-2,9.889489174E0,1.363066882E-1
6.020314063E0,-2.625960298E-2,9.920595169E0,9.323979169E-2
6.025276563E0,-1.387200505E-1,9.949306488E0,4.299028218E-2
6.030240625E0,-2.440074682E-1,9.975632668E0,8.366298676E-2
6.035203125E0,-2.464016527E-1,9.985199928E0,4.538448900E-2
6.040167188E0,-3.110068142E-1,1.001630592E1,8.127836138E-2
6.045129688E0,-3.349392414E-1,1.003305531E1,1.905784570E-2
6.050092188E0,-3.038241863E-1,1.006655502E1,5.734591931E-2
6.055056250E0,-2.607572973E-1,1.011919880E1,-3.597048670E-2
6.060018750E0,-3.397180736E-1,1.002109337E1,-4.865017720E-3
6.064982813E0,-3.804003298E-1,1.010484314E1,-1.532097608E-1
6.069945313E0,-4.067174196E-1,1.003784370E1,-1.340752989E-1
6.074909375E0,-4.952549636E-1,1.010484314E1,-8.621999621E-2
6.079871875E0,-4.545727372E-1,1.007373714E1,-8.383536339E-2
6.084835938E0,-4.545727372E-1,1.010005474E1,-6.229712814E-2
6.089798438E0,-4.473996758E-1,1.009766006E1,-5.750872567E-2
6.094760938E0,-4.713225365E-1,1.015269852E1,-5.272032320E-2
6.099725000E0,-4.856877327E-1,1.011441040E1,-3.358586133E-2
6.104687500E0,-4.808993638E-1,1.014791012E1,-1.125466302E-1
6.109651563E0,-4.713225365E-1,1.008330441E1,2.145204693E-2
6.114614063E0,-3.612563312E-1,1.010005474E1,1.028070226E-1
6.119578125E0,-3.708235621E-1,1.010962200E1,2.145204693E-2
6.124540625E0,-3.181893826E-1,1.015987110E1,2.384624816E-2
6.129503125E0,-2.105077952E-1,1.012159252E1,7.648995519E-2
6.134467188E0,-1.459026486E-1,1.011680508E1,7.409575582E-2
6.139429688E0,-2.511900663E-1,1.011680508E1,1.530565321E-1
6.144392188E0,-2.655456960E-1,1.019576550E1,1.219510585E-1
6.149356250E0,-3.732177317E-1,1.011680508E1,1.315278560E-1
6.154318750E0,-4.593611062E-1,1.011441040E1,6.213432178E-2
6.159282813E0,-4.832935631E-1,1.012876606E1,2.535555363E-1
6.164245313E0,-4.665437341E-1,1.016705418E1,2.128828466E-1
6.169209375E0,-4.928607643E-1,1.011919880E1,2.296326756E-1
6.174171875E0,-4.426112771E-1,1.010962200E1,1.698063612E-1
6.179134375E0,-4.234672487E-1,1.010244942E1,1.291336715E-1
6.184098438E0,-3.732177317E-1,1.009526634E1,2.863465250E-2
6.189060938E0,-3.181893826E-1,1.008091068E1,-7.665276527E-2
6.194025000E0,-3.181893826E-1,1.003784370E1,-5.272032320E-2
6.198987500E0,-2.176903933E-1,9.949306488E0,-1.269022673E-1
6.203951563E0,-2.655456960E-1,9.951700211E0,-1.340752989E-1
6.208914063E0,-2.870743573E-1,9.956489563E0,-1.891036183E-1
6.213878125E0,-2.799013257E-1,9.944517136E0,-1.986804307E-1
6.218840625E0,-2.918627560E-1,9.968450546E0,-2.082476616E-1
6.223803125E0,-3.349392414E-1,9.966055870E0,-2.656797767E-1
6.228767188E0,-2.655456960E-1,9.946911812E0,-2.896026373E-1
6.233729688E0,-2.822955251E-1,9.930162430E0,-2.728528082E-1
6.238693750E0,-1.459026486E-1,9.963662148E0,-3.015640676E-1
6.243656250E0,-1.124029830E-1,9.978017807E0,-2.800354064E-1
6.248618750E0,-1.052203774E-1,9.922988892E0,-2.010650635E-1
6.253582813E0,-1.459026486E-1,9.882307053E0,-1.795363873E-1
6.258543750E0,-1.363354176E-1,9.951700211E0,-1.914978325E-1
6.263509375E0,-1.435084492E-1,9.961267471E0,-1.292964667E-1
6.268471875E0,-9.086474776E-2,9.911018372E0,-4.315309227E-2
6.273435938E0,-1.746139228E-1,9.992383003E0,2.308010357E-3
6.278398438E0,-2.416132689E-1,1.001391125E1,3.102885373E-2
6.283360938E0,-2.799013257E-1,9.982805252E0,2.224500775E-1
6.288325000E0,-2.392190546E-1,9.980412483E0,2.296326756E-1
6.293287500E0,-2.392190546E-1,1.003066158E1,2.200558633E-1
6.298251563E0,-2.344402373E-1,1.003784370E1,3.181606829E-1
6.303214063E0,-2.081135809E-1,1.004741096E1,3.540545404E-1
6.308178125E0,-1.817965209E-1,9.994767189E0,3.827657998E-1
6.313140625E0,-8.129751682E-2,9.985199928E0,4.330153167E-1
6.318103125E0,-9.804734588E-2,1.002588272E1,4.043040574E-1
6.323067188E0,7.423940301E-2,1.006655502E1,1.602391303E-1
6.328029688E0,-1.530852467E-1,9.894268990E0,2.463825047E-1
6.332993750E0,-5.975927413E-2,9.865556717E0,3.277374804E-1
6.337956250E0,1.680729724E-2,9.927767754E0,3.827657998E-1
6.342920313E0,-4.779784381E-2,9.934949875E0,4.832648337E-1
6.347882813E0,-5.019204319E-2,9.911018372E0,4.784860015E-1
6.352846875E0,-1.363354176E-1,9.934949875E0,5.191587210E-1
6.357809375E0,-2.224692255E-1,9.887095451E0,5.383027196E-1
6.362771875E0,-1.913637519E-1,9.855990410E0,4.832648337E-1
6.367735938E0,-2.200750262E-1,9.841633797E0,3.851599991E-1
6.372698438E0,-2.272576243E-1,9.867951393E0,3.133818507E-1
6.377660938E0,-2.081135809E-1,9.889489174E0,3.325162828E-1
6.382625000E0,-1.865849346E-1,9.877518654E0,2.487671375E-1
6.387587500E0,-2.487958670E-1,9.851201057E0,2.607381344E-1
6.392551563E0,-1.817965209E-1,9.738740921E0,1.937388033E-1
6.397514063E0,-1.794023216E-1,9.808135033E0,1.075954214E-1
6.402478125E0,-1.937579513E-1,9.841633797E0,-2.400905453E-2
6.407440625E0,-1.315470189E-1,9.841633797E0,-1.627865583E-1
6.412403125E0,-1.387200505E-1,9.846412659E0,-1.723537892E-1
6.417367188E0,-1.459026486E-1,9.882307053E0,-2.297859043E-1
6.422329688E0,-1.889695525E-1,9.772240639E0,-2.632855773E-1
6.427293750E0,-1.674408913E-1,9.894268990E0,-2.226033062E-1
6.432256250E0,-1.770081222E-1,9.927767754E0,-2.537087798E-1
6.437220313E0,-1.435084492E-1,9.973237991E0,-3.087466657E-1
6.442182813E0,-1.937579513E-1,9.865556717E0,-3.278907239E-1
6.447145313E0,-2.057193965E-1,9.954094887E0,-3.566019833E-1
6.452109375E0,-2.487958670E-1,9.877518654E0,-2.752470076E-1
6.457071875E0,-2.918627560E-1,9.942132950E0,-1.986804307E-1
6.462035938E0,-1.841907203E-1,9.978017807E0,-1.221138611E-1
6.466998438E0,-2.009405643E-1,9.927767754E0,-2.470816020E-3
6.471962500E0,-2.105077952E-1,1.002826691E1,2.308010357E-3
6.476925000E0,-1.722197086E-1,9.968450546E0,4.777869210E-2
6.481887500E0,-1.171913818E-1,9.997160912E0,1.554507315E-1
6.486851563E0,-1.482968628E-1,9.920595169E0,1.363066882E-1
6.491814063E0,-8.847054094E-2,9.975632668E0,2.176616639E-1
6.496778125E0,-6.933607906E-2,9.944517136E0,3.684101999E-1
6.501740625E0,-7.650911063E-2,9.934949875E0,4.186596870E-1
6.506704688E0,-1.908657700E-2,1.001870060E1,4.354095161E-1
6.511667188E0,-4.540364072E-2,9.896661758E0,4.378037155E-1
6.516629688E0,-1.429817267E-2,9.987594604E0,6.388017535E-1
6.521593750E0,-1.908657700E-2,9.963662148E0,6.292344928E-1
6.526556250E0,4.552813992E-2,9.963662148E0,6.890512705E-1
6.531520313E0,-7.115567569E-3,1.000434399E1,6.316191554E-1
6.536482813E0,-1.076145768E-1,1.007373714E1,6.842628121E-1
6.541445313E0,-1.482968628E-1,1.004741096E1,6.603399515E-1
6.546407813E0,-2.607572973E-1,1.008809376E1,6.818686724E-1
6.551371875E0,-2.464016527E-1,1.004023838E1,6.842628121E-1
6.556335938E0,-2.751129270E-1,1.008569908E1,6.914454103E-1
6.561296875E0,-3.157951832E-1,1.005938148E1,5.837638378E-1
6.566262500E0,-3.875733614E-1,1.006176662E1,5.024088621E-1
6.571225000E0,-3.780061305E-1,1.012637234E1,4.617361724E-1
6.576189063E0,-4.067174196E-1,1.004980564E1,4.186596870E-1
6.581151563E0,-4.545727372E-1,1.008809376E1,3.588429689E-1
6.586114063E0,-4.976491928E-1,1.005938148E1,2.774879634E-1
6.591078125E0,-5.478987098E-1,1.008569908E1,2.822668254E-1
6.596039063E0,-5.550717115E-1,1.012637234E1,1.291336715E-1
6.601004688E0,-5.239662528E-1,1.007613182E1,1.745947748E-1
6.605967188E0,-5.933598280E-1,1.013115978E1,-6.708553433E-2
6.610929688E0,-5.909655690E-1,1.012398720E1,-1.603923589E-1
6.615893750E0,-6.053212285E-1,1.014551544E1,-2.584971488E-1
6.620856250E0,-5.885714293E-1,1.015030479E1,-2.848142385E-1
6.625818750E0,-6.029270291E-1,1.009048748E1,-2.513145506E-1
6.630782813E0,-5.072164536E-1,1.012637234E1,-2.058534473E-1
6.635746875E0,-5.191778541E-1,1.010244942E1,-1.603923589E-1
6.640709375E0,-5.000433922E-1,9.997160912E0,-1.747480035E-1
6.645671875E0,-4.880723953E-1,9.946911812E0,-3.135350645E-1
6.650635938E0,-3.732177317E-1,1.003784370E1,-2.967852354E-1
6.655598438E0,-4.043232203E-1,9.934949875E0,-3.159292936E-1
6.660562500E0,-2.966511548E-1,9.946911812E0,-2.608913481E-1
6.665525000E0,-2.583630979E-1,9.958883286E0,-3.254965246E-1
6.670487500E0,-2.464016527E-1,9.934949875E0,-2.393531352E-1
6.675451563E0,-1.387200505E-1,9.877518654E0,-2.154302746E-1
6.680414063E0,-6.933607906E-2,9.853595734E0,-1.603923589E-1
6.685378125E0,3.116292879E-2,9.889489174E0,1.666364260E-2
6.690340625E0,9.098923951E-2,9.834450722E0,1.698063612E-1
6.695304688E0,1.149025261E-1,9.808135033E0,2.152674496E-1
6.700267188E0,6.466259807E-2,9.834450722E0,2.535555363E-1
6.705231250E0,7.423940301E-2,9.855990410E0,3.396989107E-1
6.710193750E0,7.902780920E-2,9.858384132E0,3.899484277E-1
6.715157813E0,2.398990095E-2,9.860768318E0,4.234480858E-1
6.720120313E0,1.441309415E-2,9.889489174E0,4.425921440E-1
6.725082813E0,-1.429817267E-2,9.894268990E0,5.430911183E-1
6.730045313E0,-9.086474776E-2,9.934949875E0,5.598409176E-1
6.735009375E0,-1.267586201E-1,9.949306488E0,5.718024373E-1
6.739971875E0,-2.152961940E-1,9.913412094E0,6.172634959E-1
6.744935938E0,-2.918627560E-1,9.968450546E0,6.124846935E-1
6.749898438E0,-2.631514966E-1,1.001391125E1,5.813696384E-1
6.754862500E0,-3.516891003E-1,1.000434399E1,4.665149748E-1
6.759825000E0,-3.445064723E-1,1.001151752E1,4.617361724E-1
6.764787500E0,-3.708235621E-1,9.968450546E0,4.497651756E-1
6.769751563E0,-4.306498468E-1,9.999555588E0,3.779869974E-1
6.774714063E0,-3.923617899E-1,9.982805252E0,3.085934520E-1
6.779678125E0,-4.402170777E-1,1.001870060E1,2.463825047E-1
6.784640625E0,-4.402170777E-1,1.001630592E1,1.841619909E-1
6.789603125E0,-3.971501887E-1,9.992383003E0,1.434893012E-1
6.794567188E0,-3.325450420E-1,9.937344551E0,2.080944330E-1
6.799531250E0,-3.780061305E-1,9.973237991E0,1.028070226E-1
6.804493750E0,-3.492948711E-1,9.970844269E0,1.554507315E-1
6.809456250E0,-3.062183857E-1,9.925383568E0,8.845138550E-2
6.814420313E0,-3.636505008E-1,9.930162430E0,6.213432178E-2
6.819382813E0,-3.421122730E-1,9.899056435E0,6.452852488E-2
6.824345313E0,-3.134010136E-1,9.937344551E0,5.974011868E-2
6.829309375E0,-3.540737033E-1,9.946911812E0,3.820187971E-2
6.834271875E0,-3.014395833E-1,9.913412094E0,1.195568517E-1
6.839235938E0,-3.110068142E-1,9.927767754E0,1.434893012E-1
6.844198438E0,-2.511900663E-1,9.899056435E0,5.016331375E-2
6.849160938E0,-1.913637519E-1,9.932557106E0,5.016331375E-2
6.854125000E0,-2.464016527E-1,9.875133514E0,9.084559232E-2
6.859087500E0,-2.511900663E-1,9.867951393E0,2.308010357E-3
6.864051563E0,-2.344402373E-1,9.913412094E0,4.299028218E-2
6.869014063E0,-1.961521655E-1,9.827268600E0,1.123838276E-1
6.873978125E0,-9.565314651E-2,9.875133514E0,1.905784570E-2
6.878940625E0,-8.847054094E-2,9.884700775E0,1.387009025E-1
6.883903125E0,-1.052203774E-1,9.879913330E0,1.147780269E-1
6.888867188E0,-1.243644133E-1,9.810519218E0,2.033060342E-1
6.893829688E0,-1.052203774E-1,9.872738838E0,2.128828466E-1
6.898792188E0,-1.530852467E-1,9.867951393E0,2.439883053E-1
6.903756250E0,-1.171913818E-1,9.808135033E0,3.253432810E-1
6.908718750E0,-1.459026486E-1,9.906239510E0,3.133818507E-1
6.913682813E0,-2.009405643E-1,9.839240074E0,2.583439350E-1
6.918645313E0,-1.937579513E-1,9.867951393E0,3.181606829E-1
6.923609375E0,-1.435084492E-1,9.911018372E0,3.420931101E-1
6.928571875E0,-1.889695525E-1,9.836845398E0,3.827657998E-1
6.933535938E0,-2.081135809E-1,9.882307053E0,3.923426270E-1
6.938498438E0,-1.985463500E-1,9.915806770E0,3.731985688E-1
6.943460938E0,-1.865849346E-1,9.903844833E0,3.827657998E-1
6.948425000E0,-2.368248552E-1,9.899056435E0,4.019098580E-1
6.953387500E0,-2.272576243E-1,9.889489174E0,3.109876513E-1
6.958351563E0,-2.272576243E-1,9.903844833E0,3.803811967E-1
6.963314063E0,-1.722197086E-1,9.985199928E0,3.731985688E-1
6.968278125E0,-1.578640938E-1,9.934949875E0,2.631323636E-1
6.973240625E0,-1.698351055E-1,9.899056435E0,3.109876513E-1
6.978203125E0,-1.554698795E-1,9.870346069E0,2.918435931E-1
6.983167188E0,-1.171913818E-1,9.956489563E0,3.373047113E-1
6.988129688E0,-2.081135809E-1,9.870346069E0,3.731985688E-1
6.993093750E0,-1.195855886E-1,9.870346069E0,3.755927682E-1
6.998056250E0,-1.411142498E-1,9.891883850E0,4.689091742E-1
7.003018750E0,-1.315470189E-1,9.942132950E0,4.019098580E-1
7.007982813E0,-2.511900663E-1,9.894268990E0,3.803811967E-1
7.012945313E0,-2.822955251E-1,9.877518654E0,3.444873095E-1
7.017909375E0,-3.995443583E-1,9.911018372E0,4.210538864E-1
7.022871875E0,-4.091115892E-1,9.922988892E0,3.636313379E-1
7.027835938E0,-4.617553055E-1,9.951700211E0,2.774879634E-1
7.032798438E0,-4.737167358E-1,9.944517136E0,1.793831587E-1
7.037760938E0,-5.000433922E-1,9.942132950E0,1.219510585E-1
7.042725000E0,-4.426112771E-1,9.863162994E0,1.674121618E-1
7.047687500E0,-4.091115892E-1,9.951700211E0,5.016331375E-2
7.052651563E0,-3.086126149E-1,9.908634186E0,-3.358586133E-2
7.057614063E0,-2.990453839E-1,9.925383568E0,-1.316906810E-1
7.062578125E0,-3.229682446E-1,9.918201447E0,-1.532097608E-1
7.067540625E0,-3.229682446E-1,9.922988892E0,-1.867094338E-1
7.072503125E0,-2.487958670E-1,9.908634186E0,-2.010650635E-1
7.077467188E0,-2.822955251E-1,9.875133514E0,-1.269022673E-1
7.082429688E0,-2.846897244E-1,9.922988892E0,-1.269022673E-1
7.087393750E0,-2.464016527E-1,9.899056435E0,-8.861419559E-2
7.092356250E0,-2.870743573E-1,9.839240074E0,-6.469132751E-2
7.097320313E0,-3.445064723E-1,9.877518654E0,-1.683602668E-2
7.102282813E0,-2.990453839E-1,9.863162994E0,7.170155644E-2
7.107245313E0,-2.918627560E-1,9.841633797E0,1.913446039E-1
7.112209375E0,-2.894685566E-1,9.855990410E0,1.650275439E-1
7.117171875E0,-2.751129270E-1,9.915806770E0,1.698063612E-1
7.122135938E0,-3.205740452E-1,9.858384132E0,2.463825047E-1
7.127098438E0,-2.105077952E-1,9.836845398E0,2.990166247E-1
7.132060938E0,-2.655456960E-1,9.841633797E0,3.468815386E-1
7.137025000E0,-2.009405643E-1,9.879913330E0,4.449863136E-1
7.141987500E0,-2.200750262E-1,9.899056435E0,5.670139790E-1
7.146951563E0,-1.267586201E-1,9.896661758E0,5.095914602E-1
7.151914063E0,-1.363354176E-1,9.810519218E0,5.095914602E-1
7.156878125E0,-1.243644133E-1,9.875133514E0,4.928416312E-1
7.161840625E0,-8.369170874E-2,9.930162430E0,4.736976027E-1
7.166804688E0,-8.847054094E-2,9.879913330E0,3.779869974E-1
7.171767188E0,-1.578640938E-1,9.848807335E0,2.703053653E-1
7.176729688E0,-1.578640938E-1,9.899056435E0,2.368056923E-1
7.181692188E0,-1.794023216E-1,9.901451111E0,2.966320217E-1
7.186656250E0,-2.320460379E-1,9.841633797E0,3.349105120E-1
7.191620313E0,-2.703245282E-1,9.932557106E0,1.889503896E-1
7.196582813E0,-2.487958670E-1,9.951700211E0,2.846610248E-1
7.201545313E0,-2.535746992E-1,9.922988892E0,1.099896207E-1
7.206509375E0,-2.727187276E-1,9.968450546E0,6.452852488E-2
7.211471875E0,-3.971501887E-1,9.994767189E0,-3.119166009E-2
7.216434375E0,-4.689379334E-1,9.942132950E0,5.495171621E-2
7.221398438E0,-4.234672487E-1,1.002109337E1,3.580768034E-2
7.226362500E0,-4.904665947E-1,1.000673866E1,3.341347724E-2
7.231325000E0,-4.928607643E-1,1.000195026E1,1.905784570E-2
7.236287500E0,-5.766099691E-1,9.999555588E0,-3.358586133E-2
7.241251563E0,-6.436092854E-1,1.005698872E1,-1.412483156E-1
7.246214063E0,-6.483976841E-1,1.003305531E1,-9.579680115E-2
7.251178125E0,-6.436092854E-1,1.001391125E1,-5.033569783E-2
7.256140625E0,-5.813983679E-1,1.004023838E1,-6.708553433E-2
7.261104688E0,-6.771089435E-1,1.004023838E1,-2.400905453E-2
7.266067188E0,-6.029270291E-1,9.989988327E0,1.052012220E-1
7.271029688E0,-5.431103110E-1,1.007613182E1,9.323979169E-2
7.275993750E0,-4.593611062E-1,1.002588272E1,1.075954214E-1
7.280956250E0,-3.588621020E-1,9.985199928E0,5.495171621E-2
7.285920313E0,-2.416132689E-1,9.956489563E0,8.605717868E-2
7.290882813E0,-1.459026486E-1,9.956489563E0,5.495171621E-2
7.295846875E0,-1.195855886E-1,9.934949875E0,7.888415456E-2
7.300809375E0,-1.429817267E-2,9.913412094E0,1.410950869E-1
7.305771875E0,9.338344634E-2,9.884700775E0,2.320173085E-1
7.310735938E0,8.859504014E-2,9.882307053E0,2.822668254E-1
7.315698438E0,1.077295020E-1,9.851201057E0,3.660160005E-1
7.320662500E0,6.227797270E-2,9.908634186E0,3.803811967E-1
7.325625000E0,-4.061523825E-2,9.836845398E0,4.330153167E-1
7.330589063E0,-1.339412183E-1,9.918201447E0,4.641303718E-1
7.335551563E0,-1.794023216E-1,9.894268990E0,4.497651756E-1
7.340514063E0,-2.296518236E-1,9.865556717E0,6.220518947E-1
7.345476563E0,-2.511900663E-1,9.867951393E0,5.957348347E-1
7.350440625E0,-2.775071263E-1,9.870346069E0,5.263413191E-1
7.355403125E0,-2.655456960E-1,9.860768318E0,5.598409176E-1
7.360367188E0,-2.655456960E-1,9.870346069E0,5.406969786E-1
7.365329688E0,-2.751129270E-1,9.829663277E0,5.024088621E-1
7.370293750E0,-3.492948711E-1,9.844018936E0,4.832648337E-1
7.375256250E0,-3.851887584E-1,9.846412659E0,3.827657998E-1
7.380220313E0,-3.923617899E-1,9.851201057E0,3.014108241E-1
7.385182813E0,-3.301508427E-1,9.762663841E0,2.966320217E-1
7.390146875E0,-3.612563312E-1,9.800951958E0,2.607381344E-1
7.395109375E0,-3.827945590E-1,9.760279655E0,2.487671375E-1
7.400073438E0,-3.708235621E-1,9.832057953E0,2.080944330E-1
7.405035938E0,-2.846897244E-1,9.824884415E0,1.427901909E-2
7.409998438E0,-2.057193965E-1,9.851201057E0,-3.119166009E-2
7.414962500E0,-2.583630979E-1,9.793779373E0,-1.747480035E-1
7.419925000E0,-2.081135809E-1,9.786596298E0,-2.369589210E-1
7.424889063E0,-1.243644133E-1,9.829663277E0,-2.800354064E-1
7.429851563E0,-1.530852467E-1,9.817702293E0,-2.991794348E-1
7.434815625E0,-1.411142498E-1,9.836845398E0,-3.350637555E-1
7.439778125E0,-2.320460379E-1,9.812912941E0,-2.178148925E-1
7.444740625E0,-1.794023216E-1,9.884700775E0,-2.082476616E-1
7.449704688E0,-1.865849346E-1,9.860768318E0,-1.795363873E-1
7.454667188E0,-2.296518236E-1,9.822490692E0,-1.922065206E-2
7.459631250E0,-2.511900663E-1,9.832057953E0,2.624044940E-2
7.464593750E0,-2.799013257E-1,9.872738838E0,4.777869210E-2
7.469557813E0,-2.129019946E-1,9.870346069E0,1.339124888E-1
7.474520313E0,-2.009405643E-1,9.872738838E0,2.463825047E-1
7.479482813E0,-2.559688985E-1,9.872738838E0,2.942378223E-1
7.484446875E0,-2.559688985E-1,9.908634186E0,4.258422852E-1
7.489409375E0,-2.464016527E-1,9.896661758E0,5.335143209E-1
7.494373438E0,-2.344402373E-1,9.867951393E0,5.694081783E-1
7.499335938E0,-2.176903933E-1,9.942132950E0,5.478699207E-1
7.504298438E0,-1.124029830E-1,9.973237991E0,4.210538864E-1
7.509262500E0,-2.942569554E-1,9.836845398E0,4.090924561E-1
7.514225000E0,-3.349392414E-1,9.855990410E0,5.694081783E-1
7.519189063E0,-2.607572973E-1,9.853595734E0,5.574467778E-1
7.524151563E0,-2.631514966E-1,9.934949875E0,5.478699207E-1
7.529114063E0,-3.469006717E-1,1.004741096E1,5.598409176E-1
7.534078125E0,-3.157951832E-1,1.000913239E1,5.071972609E-1
7.539040625E0,-3.636505008E-1,9.927767754E0,5.383027196E-1
7.544004688E0,-4.210730195E-1,9.942132950E0,3.875542283E-1
7.548967188E0,-4.473996758E-1,9.939739227E0,3.875542283E-1
7.553931250E0,-4.306498468E-1,9.963662148E0,2.583439350E-1
7.558893750E0,-4.689379334E-1,9.951700211E0,1.530565321E-1
7.563856250E0,-4.521880746E-1,1.000434399E1,1.841619909E-1
7.568820313E0,-5.359276533E-1,9.930162430E0,7.409575582E-2
7.573784375E0,-5.598601103E-1,9.956489563E0,-9.653421119E-3
7.578746875E0,-6.436092854E-1,9.906239510E0,1.666364260E-2
7.583709375E0,-5.167931914E-1,9.906239510E0,-1.683602668E-2
7.588673438E0,-5.478987098E-1,9.920595169E0,1.188481692E-2
7.593635938E0,-5.143990517E-1,9.848807335E0,-2.161485329E-2
7.598598438E0,-4.545727372E-1,9.899056435E0,-5.511452630E-2
7.603562500E0,-4.354382753E-1,9.867951393E0,-4.554729536E-2
7.608525000E0,-4.067174196E-1,9.836845398E0,-9.100839496E-2
7.613489063E0,-3.492948711E-1,9.800951958E0,-1.484309286E-1
7.618451563E0,-3.181893826E-1,9.767452240E0,-2.082476616E-1
7.623415625E0,-2.775071263E-1,9.832057953E0,-1.843152195E-1
7.628378125E0,-2.368248552E-1,9.844018936E0,-1.532097608E-1
7.633340625E0,-1.913637519E-1,9.858384132E0,-1.747480035E-1
7.638304688E0,-2.033347636E-1,9.834450722E0,-6.947015226E-2
7.643267188E0,-2.392190546E-1,9.786596298E0,-5.511452630E-2
7.648231250E0,-2.464016527E-1,9.805740356E0,2.863465250E-2
7.653193750E0,-2.655456960E-1,9.851201057E0,5.495171621E-2
7.658157813E0,-2.129019946E-1,9.844018936E0,9.563399851E-2
7.663120313E0,-2.272576243E-1,9.827268600E0,1.698063612E-1
7.668082813E0,-1.985463500E-1,9.858384132E0,2.104886323E-1
7.673046875E0,-2.105077952E-1,9.812912941E0,2.822668254E-1
7.678009375E0,-2.296518236E-1,9.851201057E0,3.349105120E-1
7.682973438E0,-2.344402373E-1,9.810519218E0,3.827657998E-1
7.687935938E0,-1.913637519E-1,9.774634361E0,5.670139790E-1
7.692898438E0,-1.028357521E-1,9.827268600E0,5.167644620E-1
7.697862500E0,-3.822103515E-2,9.834450722E0,5.287354589E-1
7.702825000E0,1.268735379E-1,9.875133514E0,5.502641797E-1
7.707789063E0,1.436233670E-1,9.858384132E0,4.210538864E-1
7.712751563E0,5.748957023E-2,9.817702293E0,5.119856596E-1
7.717715625E0,9.338344634E-2,9.872738838E0,5.885522366E-1
7.722678125E0,9.338344634E-2,9.908634186E0,6.292344928E-1
7.727640625E0,2.877830528E-2,9.915806770E0,5.646198392E-1
7.732603125E0,-5.019204319E-2,9.942132950E0,6.196576953E-1
7.737567188E0,-3.822103515E-2,9.913412094E0,5.598409176E-1
7.742529688E0,-1.554698795E-1,9.970844269E0,4.784860015E-1
7.747493750E0,-1.722197086E-1,9.918201447E0,4.569477439E-1
7.752456250E0,-1.698351055E-1,9.930162430E0,4.760918021E-1
7.757418750E0,-2.033347636E-1,9.901451111E0,4.186596870E-1
7.762384375E0,-2.607572973E-1,9.963662148E0,4.425921440E-1
7.767346875E0,-2.559688985E-1,9.934949875E0,3.684101999E-1
7.772309375E0,-2.631514966E-1,9.925383568E0,3.349105120E-1
7.777273438E0,-3.445064723E-1,9.927767754E0,2.726995945E-1
7.782235938E0,-3.851887584E-1,9.899056435E0,2.535555363E-1
7.787200000E0,-4.473996758E-1,9.911018372E0,2.224500775E-1
7.792162500E0,-4.689379334E-1,9.942132950E0,1.698063612E-1
7.797125000E0,-5.215719938E-1,9.946911812E0,1.722005606E-1
7.802089063E0,-4.856877327E-1,9.958883286E0,7.648995519E-2
7.807051563E0,-5.215719938E-1,9.927767754E0,1.427901909E-2
7.812015625E0,-5.263604522E-1,9.944517136E0,4.702212289E-3
7.816978125E0,-4.952549636E-1,9.930162430E0,-6.229712814E-2
7.821942188E0,-4.785051644E-1,9.920595169E0,-1.173350364E-1
7.826904688E0,-4.617553055E-1,9.875133514E0,-6.947015226E-2
7.831867188E0,-4.856877327E-1,9.884700775E0,-1.173350364E-1
7.836831250E0,-4.450055063E-1,9.908634186E0,-7.425855845E-2
7.841793750E0,-4.115057886E-1,9.844018936E0,-2.297859043E-1
7.846756250E0,-3.421122730E-1,9.841633797E0,-2.106418610E-1
7.851720313E0,-2.870743573E-1,9.853595734E0,-1.891036183E-1
7.856684375E0,-2.846897244E-1,9.800951958E0,-2.369589210E-1
7.861646875E0,-2.487958670E-1,9.798557281E0,-1.819306016E-1
7.866610938E0,-1.889695525E-1,9.791384697E0,-1.819306016E-1
7.871573438E0,-1.889695525E-1,9.765057564E0,-1.292964667E-1
7.876535938E0,-1.698351055E-1,9.784202576E0,-1.922065206E-2
7.881498438E0,-1.794023216E-1,9.844018936E0,-1.077582315E-1
7.886462500E0,-1.841907203E-1,9.784202576E0,-2.161485329E-2
7.891425000E0,-1.746139228E-1,9.800951958E0,1.905784570E-2
7.896389063E0,-1.171913818E-1,9.769846916E0,1.315278560E-1
7.901351563E0,-1.482968628E-1,9.762663841E0,1.602391303E-1
7.906315625E0,-9.565314651E-2,9.743529320E0,2.391999066E-1
7.911278125E0,-9.325893968E-2,9.757884979E0,2.966320217E-1
7.916242188E0,-2.147120051E-2,9.760279655E0,4.473805130E-1
7.921204688E0,3.595133126E-2,9.791384697E0,4.736976027E-1
7.926167188E0,1.202846877E-2,9.822490692E0,4.952358305E-1
7.931131250E0,5.509537086E-2,9.829663277E0,4.880532324E-1
7.936093750E0,3.355713189E-2,9.839240074E0,4.210538864E-1
7.941057813E0,1.680729724E-2,9.803345680E0,4.258422852E-1
7.946020313E0,4.073973373E-2,9.810519218E0,5.430911183E-1
7.950982813E0,1.680729724E-2,9.815307617E0,5.670139790E-1
7.955946875E0,-9.509769268E-3,9.901451111E0,5.741965771E-1
7.960909375E0,2.638410218E-2,9.860768318E0,5.598409176E-1
7.965873438E0,3.834553435E-2,9.867951393E0,6.029078960E-1
7.970835938E0,-3.104800731E-2,9.908634186E0,6.411958933E-1
7.975800000E0,-1.506910622E-1,9.899056435E0,5.813696384E-1
7.980762500E0,-1.937579513E-1,1.002826691E1,6.100904346E-1
7.985726563E0,-2.272576243E-1,9.982805252E0,6.172634959E-1
7.990689063E0,-3.397180736E-1,1.001151752E1,5.933406353E-1
7.995653125E0,-3.756119311E-1,1.004023838E1,5.646198392E-1
8.000615625E0,-4.139000177E-1,1.006894875E1,5.263413191E-1
8.005578125E0,-3.851887584E-1,9.975632668E0,4.904474318E-1
8.010542188E0,-4.162942171E-1,1.004741096E1,4.784860015E-1
8.015504688E0,-3.947559893E-1,1.004023838E1,3.588429689E-1
8.020468750E0,-4.234672487E-1,1.005219936E1,3.588429689E-1
8.025431250E0,-3.564679027E-1,1.005219936E1,1.961330026E-1
8.030395313E0,-3.732177317E-1,9.997160912E0,2.679111660E-1
8.035357813E0,-3.492948711E-1,1.002348804E1,1.291336715E-1
8.040320313E0,-3.397180736E-1,1.005938148E1,1.147780269E-1
8.045282813E0,-3.134010136E-1,9.966055870E0,4.538448900E-2
8.050246875E0,-3.445064723E-1,1.002588272E1,-4.075888917E-2
8.055210938E0,-2.799013257E-1,1.000673866E1,-5.033569783E-2
8.060173438E0,-2.751129270E-1,1.002588272E1,-1.484309286E-1
8.065135938E0,-2.272576243E-1,9.985199928E0,-1.436425298E-1
8.070098438E0,-2.918627560E-1,9.982805252E0,-1.962862462E-1
8.075062500E0,-2.440074682E-1,9.958883286E0,-1.579981595E-1
8.080026563E0,-2.727187276E-1,9.946911812E0,-1.747480035E-1
8.084989063E0,-2.368248552E-1,9.961267471E0,-1.101524383E-1
8.089951563E0,-2.105077952E-1,9.966055870E0,-1.460367292E-1
8.094915625E0,-3.445064723E-1,9.985199928E0,-1.412483156E-1
8.099878125E0,-3.373238444E-1,1.000913239E1,-1.197196692E-1
8.104842188E0,-3.062183857E-1,9.966055870E0,-6.947015226E-2
8.109804688E0,-3.325450420E-1,9.899056435E0,-2.640325576E-2
8.114767188E0,-3.660447001E-1,9.906239510E0,3.102885373E-2
8.119731250E0,-3.134010136E-1,9.911018372E0,5.016331375E-2
8.124693750E0,-2.176903933E-1,9.980412483E0,1.650275439E-1
8.129657813E0,-2.487958670E-1,9.922988892E0,1.506623179E-1
8.134620313E0,-1.841907203E-1,9.930162430E0,2.535555363E-1
8.139582813E0,-2.679399252E-1,9.913412094E0,2.463825047E-1
8.144546875E0,-2.607572973E-1,9.899056435E0,3.684101999E-1
8.149509375E0,-2.751129270E-1,9.913412094E0,3.468815386E-1
8.154473438E0,-2.009405643E-1,9.894268990E0,3.492661417E-1
8.159435938E0,-8.129751682E-2,9.867951393E0,4.449863136E-1
8.164400000E0,-1.429817267E-2,9.848807335E0,4.401979446E-1
8.169362500E0,-7.890331000E-2,9.882307053E0,4.330153167E-1
8.174325000E0,-8.369170874E-2,9.860768318E0,4.928416312E-1
8.179289063E0,-7.650911063E-2,9.836845398E0,4.162654579E-1
8.184251563E0,-9.565314651E-2,9.788990021E0,4.521593750E-1
8.189215625E0,-7.890331000E-2,9.884700775E0,4.282364845E-1
8.194178125E0,-1.076145768E-1,9.829663277E0,3.349105120E-1
8.199140625E0,-1.195855886E-1,9.812912941E0,2.703053653E-1
8.204104688E0,-1.530852467E-1,9.863162994E0,2.176616639E-1
8.209067188E0,-1.578640938E-1,9.860768318E0,3.373047113E-1
8.214031250E0,-1.315470189E-1,9.903844833E0,3.612371385E-1
8.218993750E0,-1.459026486E-1,9.800951958E0,2.679111660E-1
8.223957813E0,-1.626524776E-1,9.810519218E0,2.918435931E-1
8.228920313E0,-1.961521655E-1,9.863162994E0,2.870551944E-1
8.233882813E0,-2.464016527E-1,9.829663277E0,1.554507315E-1
8.238846875E0,-2.751129270E-1,9.841633797E0,1.315278560E-1
8.243809375E0,-2.799013257E-1,9.839240074E0,9.323979169E-2
8.248773438E0,-2.727187276E-1,9.855990410E0,1.028070226E-1
8.253735938E0,-2.631514966E-1,9.930162430E0,6.213432178E-2
8.258698438E0,-2.894685566E-1,9.853595734E0,1.698063612E-1
8.263662500E0,-2.799013257E-1,9.913412094E0,1.243452579E-1
8.268625000E0,-2.942569554E-1,9.896661758E0,1.745947748E-1
8.273589063E0,-3.516891003E-1,9.934949875E0,1.626333296E-1
8.278551563E0,-4.019385576E-1,9.958883286E0,-3.358586133E-2
8.283515625E0,-4.067174196E-1,9.958883286E0,-7.904696465E-2
8.288478125E0,-4.162942171E-1,9.911018372E0,-1.340752989E-1
8.293440625E0,-3.445064723E-1,9.939739227E0,-1.532097608E-1
8.298404688E0,-3.708235621E-1,9.934949875E0,-7.904696465E-2
8.303367188E0,-4.306498468E-1,9.975632668E0,-1.922065206E-2
8.308331250E0,-4.067174196E-1,9.961267471E0,2.415941060E-1
8.313293750E0,-4.330440462E-1,9.978017807E0,3.612371385E-1
8.318257813E0,-4.641495049E-1,1.005698872E1,3.396989107E-1
8.323220313E0,-5.024375916E-1,1.008569908E1,2.822668254E-1
8.328182813E0,-5.120047927E-1,1.003544903E1,1.985176206E-1
8.333146875E0,-4.785051644E-1,1.004263210E1,2.152674496E-1
8.338109375E0,-4.067174196E-1,1.004741096E1,9.802819043E-2
8.343073438E0,-3.445064723E-1,1.001870060E1,4.059608281E-2
8.348035938E0,-2.272576243E-1,1.005459404E1,3.580768034E-2
8.352998438E0,-1.794023216E-1,1.001391125E1,-8.619125583E-5
8.357962500E0,-1.052203774E-1,9.824884415E0,-3.597048670E-2
8.362925000E0,-8.129751682E-2,9.944517136E0,1.905784570E-2
8.367889063E0,-7.890331000E-2,9.889489174E0,1.387009025E-1
8.372851563E0,-9.565314651E-2,9.937344551E0,3.133818507E-1
8.377815625E0,-7.650911063E-2,9.994767189E0,5.024088621E-1
8.382778125E0,-1.100087836E-1,1.000673866E1,7.034068704E-1
8.387740625E0,-1.195855886E-1,9.966055870E0,7.081953287E-1
8.392704688E0,-1.985463500E-1,9.997160912E0,6.244460940E-1
8.397667188E0,-2.296518236E-1,9.930162430E0,5.119856596E-1
8.402631250E0,-1.985463500E-1,9.982805252E0,4.760918021E-1
8.407593750E0,-1.339412183E-1,9.980412483E0,3.468815386E-1
8.412557813E0,-1.076145768E-1,9.975632668E0,3.038050532E-1
8.417520313E0,-6.454767287E-2,9.879913330E0,2.415941060E-1
8.422482813E0,-5.258624628E-2,9.877518654E0,3.109876513E-1
8.427446875E0,-7.411490381E-2,9.877518654E0,4.210538864E-1
8.432409375E0,-8.608591557E-2,9.870346069E0,4.090924561E-1
8.437373438E0,1.441309415E-2,9.844018936E0,5.143703222E-1
8.442335938E0,-8.608591557E-2,9.848807335E0,5.622351766E-1
8.447300000E0,-1.195855886E-1,9.834450722E0,4.425921440E-1
8.452262500E0,-1.794023216E-1,9.822490692E0,3.373047113E-1
8.457225000E0,-8.608591557E-2,9.803345680E0,2.607381344E-1
8.462189063E0,-9.086474776E-2,9.822490692E0,1.195568517E-1
8.467151563E0,-9.565314651E-2,9.803345680E0,-1.005852073E-1
8.472115625E0,-1.315470189E-1,9.803345680E0,-1.986804307E-1
8.477078125E0,-1.243644133E-1,9.760279655E0,-1.364599168E-1
8.482042188E0,-1.387200505E-1,9.832057953E0,-7.425855845E-2
8.487004688E0,-8.369170874E-2,9.827268600E0,-3.119166009E-2
8.491967188E0,-1.219702139E-1,9.824884415E0,-4.865017720E-3
8.496931250E0,-2.344402373E-1,9.879913330E0,5.016331375E-2
8.501893750E0,-2.918627560E-1,9.853595734E0,-2.640325576E-2
8.506857813E0,-3.492948711E-1,9.920595169E0,-6.469132751E-2
8.511820313E0,-4.210730195E-1,9.858384132E0,-6.947015226E-2
8.516784375E0,-4.641495049E-1,9.949306488E0,-2.034592628E-1
8.521746875E0,-4.497938752E-1,9.879913330E0,-1.484309286E-1
8.526709375E0,-4.306498468E-1,9.908634186E0,-8.144116402E-2
8.531673438E0,-3.827945590E-1,9.911018372E0,-2.161485329E-2
8.536635938E0,-3.947559893E-1,9.932557106E0,1.913446039E-1
8.541600000E0,-3.277566135E-1,9.937344551E0,3.468815386E-1
8.546562500E0,-3.397180736E-1,9.927767754E0,4.330153167E-1
8.551526563E0,-2.990453839E-1,9.944517136E0,5.263413191E-1
8.556489063E0,-3.062183857E-1,1.000434399E1,4.736976027E-1
8.561451563E0,-3.397180736E-1,9.980412483E0,4.521593750E-1
8.566415625E0,-3.349392414E-1,9.982805252E0,3.803811967E-1
8.571378125E0,-2.822955251E-1,9.930162430E0,4.784860015E-1
8.576342188E0,-2.200750262E-1,9.961267471E0,4.760918021E-1
8.581304688E0,-2.176903933E-1,9.915806770E0,5.885522366E-1
8.586268750E0,-2.511900663E-1,9.896661758E0,6.435901523E-1
8.591231250E0,-2.535746992E-1,9.951700211E0,6.124846935E-1
8.596193750E0,-2.296518236E-1,9.915806770E0,6.388017535E-1
8.601157813E0,-2.822955251E-1,9.932557106E0,5.981194377E-1
8.606120313E0,-3.325450420E-1,9.899056435E0,6.268403530E-1
8.611084375E0,-3.301508427E-1,9.846412659E0,6.340133548E-1
8.616046875E0,-3.038241863E-1,9.918201447E0,5.574467778E-1
8.621010938E0,-3.301508427E-1,9.877518654E0,5.215529203E-1
8.625973438E0,-2.344402373E-1,9.932557106E0,4.306307137E-1
8.630935938E0,-2.152961940E-1,9.911018372E0,3.396989107E-1
8.635900000E0,-2.224692255E-1,9.827268600E0,3.253432810E-1
8.640862500E0,-2.152961940E-1,9.805740356E0,2.846610248E-1
8.645826563E0,-2.176903933E-1,9.803345680E0,1.052012220E-1
8.650789063E0,-2.822955251E-1,9.798557281E0,4.059608281E-2
8.655751563E0,-2.631514966E-1,9.760279655E0,-6.708553433E-2
8.660715625E0,-2.511900663E-1,9.774634361E0,-1.101524383E-1
8.665678125E0,-2.655456960E-1,9.812912941E0,-2.345647216E-1
8.670642188E0,-2.775071263E-1,9.741134644E0,-2.393531352E-1
8.675604688E0,-2.990453839E-1,9.781807899E0,-2.824296057E-1
8.680568750E0,-3.373238444E-1,9.769846916E0,-3.924958408E-1
8.685531250E0,-3.540737033E-1,9.798557281E0,-2.417473346E-1
8.690493750E0,-3.445064723E-1,9.788990021E0,-3.159292936E-1
8.695457813E0,-2.966511548E-1,9.817702293E0,-2.393531352E-1
8.700420313E0,-2.942569554E-1,9.858384132E0,-3.039582968E-1
8.705384375E0,-3.636505008E-1,9.803345680E0,-2.369589210E-1
8.710346875E0,-2.942569554E-1,9.841633797E0,-2.130360752E-1
8.715309375E0,-2.990453839E-1,9.851201057E0,-1.723537892E-1
8.720273438E0,-2.631514966E-1,9.851201057E0,-3.836468980E-2
8.725235938E0,-1.626524776E-1,9.865556717E0,9.802819043E-2
8.730200000E0,-1.841907203E-1,9.872738838E0,8.127836138E-2
8.735162500E0,-1.554698795E-1,9.800951958E0,1.602391303E-1
8.740126563E0,-1.554698795E-1,9.870346069E0,1.339124888E-1
8.745089063E0,-1.674408913E-1,9.851201057E0,1.722005606E-1
8.750053125E0,-1.578640938E-1,9.827268600E0,2.990166247E-1
8.755015625E0,-3.583640978E-2,9.824884415E0,3.684101999E-1
8.759978125E0,7.902780920E-2,9.791384697E0,5.191587210E-1
8.764942188E0,5.030696467E-2,9.820096016E0,5.837638378E-1
8.769904688E0,9.338344634E-2,9.767452240E0,6.555515528E-1
8.774868750E0,1.340465695E-1,9.765057564E0,7.799734473E-1
8.779831250E0,1.340465695E-1,9.808135033E0,6.100904346E-1
8.784795313E0,-4.540364072E-2,9.760279655E0,7.775887847E-1
8.789757813E0,4.313393682E-2,9.796163559E0,9.091932774E-1
8.794720313E0,-4.061523825E-2,9.875133514E0,9.522601962E-1
8.799684375E0,-1.076145768E-1,9.911018372E0,8.063001037E-1
8.804646875E0,-1.674408913E-1,9.961267471E0,8.374055624E-1
8.809610938E0,-2.631514966E-1,9.908634186E0,7.991175056E-1
8.814573438E0,-3.469006717E-1,9.930162430E0,6.699072123E-1
8.819535938E0,-3.995443583E-1,9.870346069E0,6.914454103E-1
8.824500000E0,-3.588621020E-1,9.877518654E0,5.383027196E-1
8.829462500E0,-3.564679027E-1,9.903844833E0,5.095914602E-1
8.834426563E0,-3.277566135E-1,9.887095451E0,4.569477439E-1
8.839389063E0,-3.540737033E-1,9.942132950E0,3.468815386E-1
8.844353125E0,-1.985463500E-1,9.891883850E0,2.607381344E-1
8.849315625E0,-2.631514966E-1,9.896661758E0,2.870551944E-1
8.854278125E0,-2.607572973E-1,9.882307053E0,1.099896207E-1
8.859242188E0,-2.918627560E-1,9.889489174E0,1.267394572E-1
8.864204688E0,-3.612563312E-1,9.877518654E0,9.084559232E-2
8.869168750E0,-3.038241863E-1,9.851201057E0,1.188481692E-2
8.874131250E0,-3.038241863E-1,9.944517136E0,-2.640325576E-2
8.879095313E0,-3.157951832E-1,9.896661758E0,-4.075888917E-2
8.884057813E0,-3.445064723E-1,9.884700775E0,1.188481692E-2
8.889020313E0,-2.631514966E-1,9.908634186E0,-6.469132751E-2
8.893984375E0,-2.942569554E-1,9.889489174E0,-4.075888917E-2
8.898946875E0,-2.846897244E-1,9.944517136E0,-9.100839496E-2
8.903910938E0,-3.014395833E-1,9.932557106E0,-7.425855845E-2
8.908873438E0,-3.373238444E-1,9.932557106E0,-3.836468980E-2
8.913837500E0,-2.487958670E-1,9.920595169E0,-1.029698253E-1
8.918800000E0,-1.387200505E-1,9.961267471E0,-4.075888917E-2
8.923762500E0,-1.482968628E-1,1.002826691E1,-9.100839496E-2
8.928726563E0,-1.578640938E-1,9.937344551E0,1.339124888E-1
8.933689063E0,-1.315470189E-1,1.001630592E1,2.009118348E-1
8.938653125E0,-6.454767287E-2,9.978017807E0,3.827657998E-1
8.943615625E0,-7.115567569E-3,9.982805252E0,4.545535445E-1
8.948579688E0,-6.215347722E-2,9.961267471E0,5.813696384E-1
8.953542188E0,-1.190397050E-2,9.985199928E0,6.507631540E-1
8.958504688E0,2.159569971E-2,9.963662148E0,6.986184716E-1
8.963468750E0,5.270116776E-2,9.882307053E0,7.728003860E-1
8.968431250E0,8.141243458E-2,9.889489174E0,7.345123291E-1
8.973395313E0,2.877830528E-2,9.844018936E0,8.326171637E-1
8.978357813E0,5.748957023E-2,9.908634186E0,9.020106792E-1
8.983320313E0,6.466259807E-2,9.879913330E0,8.637226820E-1
8.988284375E0,-3.104800731E-2,9.865556717E0,8.469727635E-1
8.993246875E0,-7.172070444E-2,9.920595169E0,7.991175056E-1
8.998210938E0,-1.698351055E-1,9.942132950E0,8.350113630E-1
9.003173438E0,-2.464016527E-1,9.896661758E0,7.440891862E-1
9.008137500E0,-3.540737033E-1,9.949306488E0,6.005136967E-1
9.013100000E0,-3.923617899E-1,9.966055870E0,5.502641797E-1
9.018062500E0,-4.665437341E-1,9.985199928E0,4.186596870E-1
9.023026563E0,-5.478987098E-1,9.973237991E0,3.061992526E-1
9.027989063E0,-5.670427084E-1,9.896661758E0,2.368056923E-1
9.032953125E0,-5.263604522E-1,9.925383568E0,1.267394572E-1
9.037915625E0,-5.359276533E-1,9.925383568E0,9.323979169E-2
9.042879688E0,-5.455045104E-1,9.879913330E0,2.308010357E-3
9.047842188E0,-4.808993638E-1,9.901451111E0,-9.653421119E-3
9.052804688E0,-4.450055063E-1,9.879913330E0,-1.747480035E-1
9.057768750E0,-4.402170777E-1,9.817702293E0,-2.393531352E-1
9.062731250E0,-3.708235621E-1,9.817702293E0,-1.532097608E-1
9.067695313E0,-3.014395833E-1,9.812912941E0,-1.460367292E-1
9.072657813E0,-2.583630979E-1,9.824884415E0,-7.425855845E-2
9.077621875E0,-1.578640938E-1,9.839240074E0,-1.747480035E-1
9.082584375E0,-1.482968628E-1,9.853595734E0,-1.747480035E-1
9.087546875E0,-1.650466919E-1,9.812912941E0,-1.723537892E-1
9.092510938E0,-2.009405643E-1,9.860768318E0,-8.383536339E-2
9.097473438E0,-1.674408913E-1,9.875133514E0,-3.597048670E-2
9.102437500E0,-2.200750262E-1,9.894268990E0,1.905784570E-2
9.107400000E0,-1.889695525E-1,9.877518654E0,1.028070226E-1
9.112364063E0,-1.889695525E-1,9.853595734E0,1.339124888E-1
9.117326563E0,-2.416132689E-1,9.899056435E0,1.363066882E-1
9.122289063E0,-2.368248552E-1,9.891883850E0,2.631323636E-1
9.127253125E0,-2.344402373E-1,9.908634186E0,2.846610248E-1
9.132215625E0,-2.272576243E-1,9.918201447E0,3.373047113E-1
9.137179688E0,-2.272576243E-1,9.867951393E0,2.870551944E-1
9.142142188E0,-1.387200505E-1,9.920595169E0,4.354095161E-1
9.147106250E0,-1.482968628E-1,9.913412094E0,4.425921440E-1
9.152068750E0,-1.554698795E-1,9.860768318E0,3.636313379E-1
9.157031250E0,-1.482968628E-1,9.872738838E0,3.995156586E-1
9.161995313E0,-6.694187969E-2,9.853595734E0,3.875542283E-1
9.166957813E0,-1.315470189E-1,9.915806770E0,3.779869974E-1
9.171921875E0,-1.124029830E-1,9.877518654E0,3.995156586E-1
9.176884375E0,-1.124029830E-1,9.891883850E0,3.373047113E-1
9.181848438E0,-1.411142498E-1,9.858384132E0,3.061992526E-1
9.186810938E0,-1.961521655E-1,9.887095451E0,3.564487696E-1
9.191773438E0,-2.248634249E-1,9.812912941E0,3.755927682E-1
9.196737500E0,-2.487958670E-1,9.812912941E0,3.014108241E-1
9.201700000E0,-3.445064723E-1,9.887095451E0,3.229490519E-1
9.206664063E0,-3.516891003E-1,9.899056435E0,3.109876513E-1
9.211626563E0,-3.875733614E-1,9.934949875E0,3.349105120E-1
9.216589063E0,-4.545727372E-1,9.913412094E0,2.583439350E-1
9.221553125E0,-4.521880746E-1,9.951700211E0,2.655169666E-1
9.226515625E0,-5.191778541E-1,9.920595169E0,2.391999066E-1
9.231479688E0,-4.545727372E-1,9.903844833E0,2.990166247E-1
9.236442188E0,-3.851887584E-1,9.956489563E0,1.363066882E-1
9.241404688E0,-4.306498468E-1,9.863162994E0,2.439883053E-1
9.246368750E0,-3.540737033E-1,9.937344551E0,9.563399851E-2
9.251332813E0,-2.440074682E-1,9.915806770E0,3.341347724E-2
9.256293750E0,-2.631514966E-1,9.925383568E0,-8.619125583E-5
9.261257813E0,-2.129019946E-1,9.925383568E0,-1.101524383E-1
9.266221875E0,-1.291528195E-1,9.970844269E0,3.580768034E-2
9.271184375E0,-8.369170874E-2,9.882307053E0,3.580768034E-2
9.276146875E0,-5.497087166E-2,9.978017807E0,-3.597048670E-2
9.281109375E0,4.073973373E-2,9.925383568E0,-6.469132751E-2
9.286073438E0,-3.822103515E-2,9.891883850E0,-1.101524383E-1
9.291037500E0,-7.650911063E-2,9.901451111E0,-6.947015226E-2
9.296000000E0,-5.736507475E-2,9.903844833E0,-3.597048670E-2
9.300964063E0,-3.822103515E-2,9.877518654E0,1.219510585E-1
9.305926563E0,4.552813992E-2,9.913412094E0,1.674121618E-1
9.310890625E0,4.073973373E-2,9.908634186E0,4.043040574E-1
9.315851563E0,2.159569971E-2,9.875133514E0,3.540545404E-1
9.320815625E0,4.552813992E-2,9.901451111E0,4.736976027E-1
9.325779688E0,3.834553435E-2,9.889489174E0,4.306307137E-1
9.330742188E0,9.576806426E-2,9.875133514E0,4.952358305E-1
9.335706250E0,5.030696467E-2,9.920595169E0,5.263413191E-1
9.340668750E0,2.877830528E-2,9.882307053E0,6.244460940E-1
9.345631250E0,9.098923951E-2,9.942132950E0,7.034068704E-1
9.350595313E0,-2.386540174E-2,9.982805252E0,8.302229643E-1
9.355557813E0,-5.258624628E-2,9.906239510E0,8.637226820E-1
9.360520313E0,-1.722197086E-1,9.973237991E0,8.302229643E-1
9.365484375E0,-2.129019946E-1,9.930162430E0,8.086943030E-1
9.370448438E0,-2.440074682E-1,9.903844833E0,7.345123291E-1
9.375410938E0,-1.506910622E-1,9.920595169E0,6.483689547E-1
9.380373438E0,-9.086474776E-2,9.939739227E0,5.957348347E-1
9.385337500E0,-1.315470189E-1,9.975632668E0,5.335143209E-1
9.390300000E0,-1.219702139E-1,9.903844833E0,5.406969786E-1
9.395264063E0,-1.554698795E-1,9.896661758E0,5.311201215E-1
9.400226563E0,-1.530852467E-1,9.844018936E0,5.957348347E-1
9.405189063E0,-1.482968628E-1,9.913412094E0,5.191587210E-1
9.410153125E0,-2.176903933E-1,9.942132950E0,2.846610248E-1
9.415115625E0,-2.272576243E-1,9.877518654E0,2.703053653E-1
9.420079688E0,-1.841907203E-1,9.896661758E0,1.123838276E-1
9.425042188E0,-1.530852467E-1,9.877518654E0,1.004128158E-1
9.430006250E0,-1.961521655E-1,9.844018936E0,2.145204693E-2
9.434968750E0,-1.698351055E-1,9.899056435E0,1.188481692E-2
9.439931250E0,-3.822103515E-2,9.834450722E0,-2.640325576E-2
9.444893750E0,-3.104800731E-2,9.879913330E0,-4.865017720E-3
9.449857813E0,-1.028357521E-1,9.853595734E0,9.802819043E-2
9.454820313E0,-1.315470189E-1,9.879913330E0,7.409575582E-2
9.459784375E0,-1.794023216E-1,9.844018936E0,-2.470816020E-3
9.464746875E0,-2.272576243E-1,9.867951393E0,-1.204762235E-2
9.469710938E0,-2.511900663E-1,9.887095451E0,-2.879745886E-2
9.474673438E0,-2.511900663E-1,9.944517136E0,-1.340752989E-1
9.479635938E0,-1.889695525E-1,9.901451111E0,-2.161485329E-2
9.484600000E0,-1.219702139E-1,9.863162994E0,2.384624816E-2
9.489564063E0,-7.115567569E-3,9.860768318E0,-3.597048670E-2
9.494526563E0,-1.124029830E-1,9.865556717E0,1.188481692E-2
9.499489063E0,-1.147971824E-1,9.860768318E0,1.219510585E-1
9.504453125E0,-4.721365869E-3,9.817702293E0,9.802819043E-2
9.509415625E0,-2.336740959E-3,9.800951958E0,1.243452579E-1
9.514378125E0,5.270116776E-2,9.851201057E0,2.152674496E-1
9.519342188E0,9.576806426E-2,9.793779373E0,2.320173085E-1
9.524304688E0,1.842960715E-1,9.808135033E0,3.301316798E-1
9.529268750E0,2.130073458E-1,9.755491257E0,3.827657998E-1
9.534231250E0,2.249783427E-1,9.798557281E0,4.784860015E-1
9.539193750E0,2.560837865E-1,9.800951958E0,4.904474318E-1
9.544157813E0,2.130073458E-1,9.750701904E0,5.718024373E-1
9.549121875E0,1.579789966E-1,9.793779373E0,6.938396692E-1
9.554084375E0,1.388349682E-1,9.803345680E0,6.842628121E-1
9.559046875E0,8.380663395E-2,9.803345680E0,8.134731650E-1
9.564010938E0,5.509537086E-2,9.810519218E0,7.728003860E-1
9.568973438E0,1.441309415E-2,9.844018936E0,7.010126710E-1
9.573935938E0,-4.779784381E-2,9.726778984E0,8.158673048E-1
9.578900000E0,9.634267539E-3,9.822490692E0,8.469727635E-1
9.583864063E0,5.030696467E-2,9.846412659E0,8.756936789E-1
9.588826563E0,1.441309415E-2,9.872738838E0,8.421939611E-1
9.593789063E0,4.313393682E-2,9.863162994E0,8.350113630E-1
9.598753125E0,-1.429817267E-2,9.875133514E0,7.010126710E-1
9.603715625E0,-1.147971824E-1,9.848807335E0,6.268403530E-1
9.608678125E0,-2.200750262E-1,9.841633797E0,5.454853773E-1
9.613642188E0,-2.631514966E-1,9.875133514E0,4.808706343E-1
9.618604688E0,-2.344402373E-1,9.865556717E0,4.210538864E-1
9.623568750E0,-2.870743573E-1,9.906239510E0,3.660160005E-1
9.628531250E0,-3.086126149E-1,9.887095451E0,2.559497356E-1
9.633495313E0,-3.708235621E-1,9.932557106E0,1.698063612E-1
9.638457813E0,-3.827945590E-1,9.877518654E0,5.255751312E-2
9.643420313E0,-4.306498468E-1,9.911018372E0,-5.750872567E-2
9.648384375E0,-4.450055063E-1,9.851201057E0,-2.082476616E-1
9.653346875E0,-3.899675608E-1,9.882307053E0,-2.513145506E-1
9.658310938E0,-2.799013257E-1,9.925383568E0,-3.159292936E-1
9.663273438E0,-3.014395833E-1,9.949306488E0,-4.834180474E-1
9.668237500E0,-2.320460379E-1,9.848807335E0,-5.408501625E-1
9.673200000E0,-2.057193965E-1,9.891883850E0,-5.743498802E-1
9.678164063E0,-2.464016527E-1,9.918201447E0,-6.222051382E-1
9.683126563E0,-1.147971824E-1,9.925383568E0,-5.552058220E-1
9.688089063E0,-1.267586201E-1,9.908634186E0,-5.193119645E-1
9.693053125E0,-6.694187969E-2,9.963662148E0,-3.685634136E-1
9.698015625E0,-8.847054094E-2,9.942132950E0,-3.111408651E-1
9.702979688E0,-1.100087836E-1,9.922988892E0,-1.579981595E-1
9.707942188E0,-8.129751682E-2,9.913412094E0,-2.470816020E-3
9.712904688E0,-7.411490381E-2,9.908634186E0,9.323979169E-2
9.717868750E0,-3.583640978E-2,9.992383003E0,2.535555363E-1
9.722831250E0,-3.104800731E-2,9.982805252E0,5.119856596E-1
9.727795313E0,-4.061523825E-2,9.958883286E0,4.545535445E-1
9.732757813E0,-1.315470189E-1,9.997160912E0,5.071972609E-1
9.737721875E0,-1.195855886E-1,9.937344551E0,5.383027196E-1
9.742684375E0,-2.625960298E-2,9.911018372E0,5.741965771E-1
9.747646875E0,2.451662440E-3,9.922988892E0,7.034068704E-1
9.752610938E0,-1.429817267E-2,9.975632668E0,7.632332444E-1
9.757573438E0,5.748957023E-2,9.978017807E0,9.546543956E-1
9.762537500E0,6.705679744E-2,9.930162430E0,8.972222805E-1
9.767500000E0,1.364407688E-1,9.942132950E0,9.163663387E-1
9.772464063E0,1.268735379E-1,9.832057953E0,8.350113630E-1
9.777426563E0,1.268735379E-1,9.903844833E0,8.421939611E-1
9.782389063E0,8.859504014E-2,9.915806770E0,7.153682709E-1
9.787353125E0,1.029410958E-1,9.870346069E0,7.488679886E-1
9.792315625E0,1.172967330E-1,9.879913330E0,6.124846935E-1
9.797279688E0,1.441309415E-2,9.913412094E0,5.694081783E-1
9.802242188E0,4.313393682E-2,9.915806770E0,3.444873095E-1
9.807204688E0,1.920149848E-2,9.851201057E0,3.205548823E-1
9.812168750E0,3.116292879E-2,9.891883850E0,2.535555363E-1
9.817131250E0,-4.061523825E-2,9.872738838E0,1.937388033E-1
9.822095313E0,-4.779784381E-2,9.884700775E0,1.434893012E-1
9.827057813E0,-2.625960298E-2,9.932557106E0,1.817677915E-1
9.832021875E0,-9.325893968E-2,9.870346069E0,6.691315025E-2
9.836984375E0,-5.497087166E-2,9.934949875E0,7.170155644E-2
9.841946875E0,-1.435084492E-1,9.894268990E0,-4.315309227E-2
9.846910938E0,-1.722197086E-1,9.913412094E0,-5.033569783E-2
9.851873438E0,-2.009405643E-1,9.908634186E0,-6.708553433E-2
9.856837500E0,-2.033347636E-1,9.911018372E0,-4.554729536E-2
9.861800000E0,-1.937579513E-1,9.920595169E0,1.188481692E-2
9.866764063E0,-1.865849346E-1,9.944517136E0,2.384624816E-2
9.871726563E0,-1.411142498E-1,9.997160912E0,1.219510585E-1
9.876689063E0,-1.482968628E-1,1.000913239E1,1.052012220E-1
9.881653125E0,-1.363354176E-1,9.997160912E0,1.458835006E-1
9.886615625E0,-1.459026486E-1,9.951700211E0,1.434893012E-1
9.891579688E0,-1.339412183E-1,9.970844269E0,1.219510585E-1
9.896542188E0,-8.847054094E-2,9.978017807E0,2.224500775E-1
9.901506250E0,-9.804734588E-2,1.000434399E1,3.205548823E-1
9.906468750E0,5.270116776E-2,9.975632668E0,4.114866555E-1
9.911431250E0,-1.908657700E-2,9.963662148E0,5.024088621E-1
9.916395313E0,2.638410218E-2,9.973237991E0,5.478699207E-1
9.921357813E0,4.791276529E-2,9.966055870E0,5.478699207E-1
9.926321875E0,1.920149848E-2,9.911018372E0,5.287354589E-1
9.931284375E0,5.748957023E-2,9.865556717E0,5.741965771E-1
9.936248438E0,3.116292879E-2,9.913412094E0,4.856590331E-1
9.941210938E0,3.116292879E-2,9.889489174E0,6.148692966E-1
9.946173438E0,6.945100427E-2,9.851201057E0,6.938396692E-1
9.951137500E0,1.202846877E-2,9.798557281E0,6.555515528E-1
9.956100000E0,-5.019204319E-2,9.989988327E0,6.531573534E-1
9.961064063E0,-4.540364072E-2,9.934949875E0,5.478699207E-1
9.966026563E0,-1.650466919E-1,9.884700775E0,5.024088621E-1
9.970990625E0,-2.320460379E-1,9.887095451E0,4.210538864E-1
9.975953125E0,-2.775071263E-1,9.927767754E0,3.014108241E-1
9.980915625E0,-3.277566135E-1,9.894268990E0,2.272384614E-1
9.985879688E0,-2.631514966E-1,9.906239510E0,1.387009025E-1
9.990842188E0,-2.727187276E-1,9.863162994E0,4.059608281E-2
9.995806250E0,-3.038241863E-1,9.877518654E0,-2.879745886E-2
1.000076875E1,-2.392190546E-1,9.884700775E0,-1.029698253E-1
1.000573281E1,-1.746139228E-1,9.879913330E0,-1.843152195E-1
1.001069531E1,-2.416132689E-1,9.851201057E0,-2.010650635E-1
1.001565781E1,-2.320460379E-1,9.805740356E0,-2.656797767E-1
1.002062188E1,-2.440074682E-1,9.860768318E0,-2.943910658E-1
1.002558438E1,-1.961521655E-1,9.865556717E0,-2.991794348E-1
1.003054844E1,-1.650466919E-1,9.858384132E0,-2.226033062E-1
1.003551094E1,-1.506910622E-1,9.855990410E0,-1.197196692E-1
1.004047344E1,-5.736507475E-2,9.855990410E0,-9.819100052E-2
1.004543750E1,4.845864139E-3,9.913412094E0,-4.794149473E-2
