"Time (s)","Gyroscope x (rad/s)","Gyroscope y (rad/s)","Gyroscope z (rad/s)"
0.000000000E0,4.050909355E-2,1.737265825E0,1.407834888E0
4.964063000E-3,4.050909355E-2,1.737265825E0,1.407834888E0
9.926563000E-3,4.050909355E-2,1.737265825E0,1.407834888E0
1.489062500E-2,4.050909355E-2,1.737265825E0,1.407834888E0
1.985312500E-2,0.000000000E0,0.000000000E0,0.000000000E0
2.481562500E-2,0.000000000E0,0.000000000E0,0.000000000E0
2.977968800E-2,5.585053586E-4,3.557644129E0,9.689020514E-1
3.474218800E-2,5.585053586E-4,3.557644129E0,9.689020514E-1
3.970625000E-2,1.343903542E-1,3.181124449E0,8.572883010E-1
4.466875000E-2,1.343903542E-1,3.181124449E0,8.572883010E-1
4.963281300E-2,3.278077245E-1,3.301936150E0,8.362047076E-1
5.459531300E-2,3.278077245E-1,3.301936150E0,8.362047076E-1
5.955781300E-2,5.493074656E-1,2.933270216E0,7.131066322E-1
6.452187500E-2,5.493074656E-1,2.933270216E0,7.131066322E-1
6.948437500E-2,7.236658931E-1,2.483882666E0,5.834810138E-1
7.444843800E-2,8.372344375E-1,2.215119600E0,4.955164194E-1
7.941093800E-2,8.372344375E-1,2.215119600E0,4.955164194E-1
8.437500000E-2,8.372344375E-1,2.215119600E0,4.955164194E-1
8.933750000E-2,8.932420611E-1,1.915725708E0,4.184426963E-1
9.430000000E-2,8.932420611E-1,1.915725708E0,4.184426963E-1
9.926406300E-2,9.111666083E-1,1.671781063E0,3.588047922E-1
1.042265630E-1,9.111666083E-1,1.671781063E0,3.588047922E-1
1.091906250E-1,9.030507803E-1,1.525435209E0,3.139672875E-1
1.141531250E-1,9.030507803E-1,1.525435209E0,3.139672875E-1
1.191171880E-1,8.785987496E-1,1.331337094E0,2.590941191E-1
1.240796880E-1,8.785987496E-1,1.331337094E0,2.590941191E-1
1.290421880E-1,8.392764926E-1,1.085350394E0,1.954070628E-1
1.340062500E-1,8.392764926E-1,1.085350394E0,1.954070628E-1
1.389687500E-1,7.971616983E-1,8.247029781E-1,1.290845573E-1
1.439328130E-1,7.971616983E-1,8.247029781E-1,1.290845573E-1
1.488953130E-1,7.558497190E-1,5.950002074E-1,6.895796210E-2
1.538593750E-1,7.558497190E-1,5.950002074E-1,6.895796210E-2
1.588218750E-1,7.149043083E-1,3.938510120E-1,1.549852360E-2
1.637843750E-1,7.149043083E-1,3.938510120E-1,1.549852360E-2
1.687484380E-1,6.753900647E-1,2.224073112E-1,-3.073524870E-2
1.737109380E-1,6.753900647E-1,2.224073112E-1,-3.073524870E-2
1.786750000E-1,6.381970644E-1,8.374089748E-2,-6.618288159E-2
1.836375000E-1,6.381970644E-1,8.374089748E-2,-6.618288159E-2
1.886000000E-1,5.987875462E-1,-2.754129469E-2,-9.391617030E-2
1.935640630E-1,5.987875462E-1,-2.754129469E-2,-9.391617030E-2
1.985265630E-1,5.581388474E-1,-1.305331737E-1,-1.169370562E-1
2.034906250E-1,5.581388474E-1,-1.305331737E-1,-1.169370562E-1
2.084531250E-1,5.178741217E-1,-2.252696455E-1,-1.359087825E-1
2.134156250E-1,5.178741217E-1,-2.252696455E-1,-1.359087825E-1
2.183796880E-1,4.786390960E-1,-3.082076907E-1,-1.513200402E-1
2.233437500E-1,4.786390960E-1,-3.082076907E-1,-1.513200402E-1
2.283046880E-1,4.414286613E-1,-3.719820082E-1,-1.630835682E-1
2.332687500E-1,4.414286613E-1,-3.719820082E-1,-1.630835682E-1
2.382328130E-1,4.091575444E-1,-4.082150459E-1,-1.710771769E-1
2.431953130E-1,4.091575444E-1,-4.082150459E-1,-1.710771769E-1
2.481578130E-1,3.825063705E-1,-4.431914687E-1,-1.796118319E-1
2.531203130E-1,3.825063705E-1,-4.431914687E-1,-1.796118319E-1
2.580843750E-1,3.578797579E-1,-4.780631363E-1,-1.870643944E-1
2.630484380E-1,3.578797579E-1,-4.780631363E-1,-1.870643944E-1
2.680109380E-1,3.329564631E-1,-5.011887550E-1,-1.910786480E-1
2.729750000E-1,3.329564631E-1,-5.011887550E-1,-1.910786480E-1
2.779375000E-1,3.052231669E-1,-4.960749447E-1,-1.877276152E-1
2.829000000E-1,3.052231669E-1,-4.960749447E-1,-1.877276152E-1
2.878640630E-1,2.766172290E-1,-4.770333767E-1,-1.787391752E-1
2.928265630E-1,2.766172290E-1,-4.770333767E-1,-1.787391752E-1
2.977906250E-1,2.504896522E-1,-4.505916536E-1,-1.666265875E-1
3.027531250E-1,2.504896522E-1,-4.505916536E-1,-1.666265875E-1
3.077171880E-1,2.281319797E-1,-4.179539979E-1,-1.535366178E-1
3.126796880E-1,2.281319797E-1,-4.179539979E-1,-1.535366178E-1
3.176437500E-1,2.089333683E-1,-3.831870258E-1,-1.392947286E-1
3.226062500E-1,2.089333683E-1,-3.831870258E-1,-1.392947286E-1
3.275687500E-1,1.920560300E-1,-3.415609300E-1,-1.239707395E-1
3.325328130E-1,1.920560300E-1,-3.415609300E-1,-1.239707395E-1
3.374953130E-1,2.053903490E-1,-3.037396371E-1,-1.117534339E-1
3.424593750E-1,2.053903490E-1,-3.037396371E-1,-1.117534339E-1
3.474218750E-1,2.361081392E-1,-2.781007588E-1,-1.045452207E-1
3.523843750E-1,2.361081392E-1,-2.781007588E-1,-1.045452207E-1
3.573484380E-1,2.653249502E-1,-2.606474757E-1,-1.003738865E-1
3.623109380E-1,2.653249502E-1,-2.606474757E-1,-1.003738865E-1
3.672734380E-1,2.789734304E-1,-2.536312342E-1,-9.765116870E-2
3.722375000E-1,2.789734304E-1,-2.536312342E-1,-9.765116870E-2
3.772000000E-1,2.628291249E-1,-2.612932324E-1,-9.765116870E-2
3.821640630E-1,2.628291249E-1,-2.612932324E-1,-9.765116870E-2
3.871265630E-1,2.351831198E-1,-2.782403827E-1,-9.983283281E-2
3.920906250E-1,2.351831198E-1,-2.782403827E-1,-9.983283281E-2
3.970531250E-1,2.061233819E-1,-3.003886044E-1,-1.030616909E-1
4.020156250E-1,2.061233819E-1,-3.003886044E-1,-1.030616909E-1
4.069796880E-1,1.806590259E-1,-3.249104917E-1,-1.080533341E-1
4.119421880E-1,1.806590259E-1,-3.249104917E-1,-1.080533341E-1
4.169062500E-1,1.610240787E-1,-3.491007686E-1,-1.132020578E-1
4.218687500E-1,1.610240787E-1,-3.491007686E-1,-1.132020578E-1
4.268312500E-1,1.457524449E-1,-3.683691919E-1,-1.173035800E-1
4.317953130E-1,1.457524449E-1,-3.683691919E-1,-1.173035800E-1
4.367578130E-1,1.196248680E-1,-3.922452927E-1,-1.198343039E-1
4.417218750E-1,1.196248680E-1,-3.922452927E-1,-1.198343039E-1
4.466843750E-1,8.402015269E-2,-4.091226161E-1,-1.213003844E-1
4.516484380E-1,8.402015269E-2,-4.091226161E-1,-1.213003844E-1
4.566109380E-1,4.522148147E-2,-4.163832068E-1,-1.206022501E-1
4.615734380E-1,4.522148147E-2,-4.163832068E-1,-1.206022501E-1
4.665375000E-1,8.552113548E-3,-4.204672575E-1,-1.177224591E-1
4.715000000E-1,8.552113548E-3,-4.204672575E-1,-1.177224591E-1
4.764625000E-1,-2.246238664E-2,-4.107981324E-1,-1.119105145E-1
4.814265630E-1,-2.246238664E-2,-4.107981324E-1,-1.119105145E-1
4.863890630E-1,-4.426154867E-2,-3.912853599E-1,-1.036551073E-1
4.913531250E-1,-4.426154867E-2,-3.912853599E-1,-1.036551073E-1
4.963156250E-1,-6.243042648E-2,-3.560471535E-1,-9.428268671E-2
5.012796880E-1,-6.243042648E-2,-3.560471535E-1,-9.428268671E-2
5.062421880E-1,-7.147122920E-2,-3.178593516E-1,-8.417722583E-2
5.112046880E-1,-7.147122920E-2,-3.178593516E-1,-8.417722583E-2
5.161687500E-1,-1.436406001E-2,-4.797910154E-2,-1.410226058E-2
5.211328130E-1,-1.436406001E-2,-4.797910154E-2,-1.410226058E-2
5.260953130E-1,-7.770206034E-2,-2.028770745E-1,-6.794566661E-2
5.310578130E-1,-7.770206034E-2,-2.028770745E-1,-6.794566661E-2
5.360218750E-1,-7.159340382E-2,-1.692096740E-1,-5.920156837E-2
5.409843750E-1,-7.159340382E-2,-1.692096740E-1,-5.920156837E-2
5.459468750E-1,-6.757915020E-2,-1.342332661E-1,-5.117305368E-2
5.509109380E-1,-6.757915020E-2,-1.342332661E-1,-5.117305368E-2
5.558734380E-1,-6.620033830E-2,-1.114567220E-1,-4.258603230E-2
5.608375000E-1,-6.620033830E-2,-1.114567220E-1,-4.258603230E-2
5.658000000E-1,-6.871361285E-2,-7.845254987E-2,-3.146828711E-2
5.707640630E-1,-6.871361285E-2,-7.845254987E-2,-3.146828711E-2
5.757265630E-1,-7.332128286E-2,-3.223622963E-2,-1.696459949E-2
5.806890630E-1,-7.332128286E-2,-3.223622963E-2,-1.696459949E-2
5.856531250E-1,-7.766715437E-2,-4.188790335E-4,-4.537856206E-3
5.906156250E-1,-7.766715437E-2,-4.188790335E-4,-4.537856206E-3
5.955796880E-1,-8.073893189E-2,2.049016580E-2,2.600540640E-3
6.005421880E-1,-8.073893189E-2,2.049016580E-2,2.600540640E-3
6.055062500E-1,-8.121016622E-2,3.134611249E-2,6.422811653E-3
6.104687500E-1,-8.121016622E-2,3.134611249E-2,6.422811653E-3
6.154312500E-1,-8.016297221E-2,2.572615258E-2,7.051130291E-3
6.203953130E-1,-8.016297221E-2,2.572615258E-2,7.051130291E-3
6.253578130E-1,-7.674212754E-2,1.727875881E-2,5.777040031E-3
6.303218750E-1,-7.674212754E-2,1.727875881E-2,5.777040031E-3
6.352843750E-1,-1.392772701E-2,2.792526793E-4,3.490658419E-4
6.402484380E-1,-1.392772701E-2,2.792526793E-4,3.490658419E-4
6.452109380E-1,-1.464331243E-2,-3.490658419E-4,3.490658492E-5
6.501734380E-1,-1.464331243E-2,-3.490658419E-4,3.490658492E-5
6.551375000E-1,-8.529423922E-2,-2.513274085E-3,-1.221730490E-3
6.601000000E-1,-8.529423922E-2,-2.513274085E-3,-1.221730490E-3
6.650640630E-1,-9.295623749E-2,-4.328416660E-2,-9.930923581E-3
6.700265630E-1,-9.295623749E-2,-4.328416660E-2,-9.930923581E-3
6.749906250E-1,-1.046150327E-1,-8.723155409E-2,-2.003637888E-2
6.799531250E-1,-1.046150327E-1,-8.723155409E-2,-2.003637888E-2
6.849156250E-1,-1.173035800E-1,-1.343729049E-1,-2.818706818E-2
6.898796880E-1,-1.173035800E-1,-1.343729049E-1,-2.818706818E-2
6.948421880E-1,-1.261873096E-1,-1.672374457E-1,-3.377212211E-2
6.998062500E-1,-1.261873096E-1,-1.672374457E-1,-3.377212211E-2
7.047687500E-1,-1.358738840E-1,-1.694191098E-1,-3.284709528E-2
7.097312500E-1,-1.358738840E-1,-1.694191098E-1,-3.284709528E-2
7.146953130E-1,-1.426981241E-1,-1.649510711E-1,-2.974040993E-2
7.196578130E-1,-1.426981241E-1,-1.649510711E-1,-2.974040993E-2
7.246218750E-1,-1.400103122E-1,-1.540951133E-1,-2.295107953E-2
7.295843750E-1,-1.400103122E-1,-1.540951133E-1,-2.295107953E-2
7.345484380E-1,-1.323134154E-1,-1.355946362E-1,-1.900663599E-2
7.395109380E-1,-1.323134154E-1,-1.355946362E-1,-1.900663599E-2
7.444734380E-1,-1.214225590E-1,-9.040805697E-2,-8.098327555E-3
7.494375000E-1,-1.214225590E-1,-9.040805697E-2,-8.098327555E-3
7.544000000E-1,-1.101128235E-1,4.764748737E-3,1.795943826E-2
7.593640630E-1,-1.101128235E-1,4.764748737E-3,1.795943826E-2
7.643265630E-1,-1.019097716E-1,1.334129721E-1,5.900958180E-2
7.692906250E-1,-1.019097716E-1,1.334129721E-1,5.900958180E-2
7.742531250E-1,-1.005309671E-1,3.193778098E-1,1.149473861E-1
7.792156250E-1,-1.005309671E-1,3.193778098E-1,1.149473861E-1
7.841796880E-1,-9.492845833E-2,4.331558049E-1,1.455604583E-1
7.891421880E-1,-9.492845833E-2,4.331558049E-1,1.455604583E-1
7.941062500E-1,-8.412487060E-2,4.495269954E-1,1.480737329E-1
7.990687500E-1,-8.412487060E-2,4.495269954E-1,1.480737329E-1
8.040328130E-1,-5.682792142E-2,4.070107937E-1,1.316327304E-1
8.089953130E-1,-5.682792142E-2,4.070107937E-1,1.316327304E-1
8.139578130E-1,-1.715658605E-2,3.409675360E-1,1.095543131E-1
8.189218750E-1,-1.715658605E-2,3.409675360E-1,1.095543131E-1
8.238843750E-1,2.246238664E-2,2.891486883E-1,9.253735840E-2
8.288484380E-1,2.246238664E-2,2.891486883E-1,9.253735840E-2
8.338109380E-1,4.899139330E-2,2.484127134E-1,8.030259609E-2
8.387750000E-1,4.899139330E-2,2.484127134E-1,8.030259609E-2
8.437375000E-1,5.670574680E-2,2.195449620E-1,7.194247097E-2
8.487000000E-1,5.670574680E-2,2.195449620E-1,7.194247097E-2
8.536640630E-1,4.820599407E-2,2.031039596E-1,6.635741889E-2
8.586265630E-1,4.820599407E-2,2.031039596E-1,6.635741889E-2
8.635906250E-1,3.837978840E-2,1.829105020E-1,6.229080260E-2
8.685531250E-1,3.837978840E-2,1.829105020E-1,6.229080260E-2
8.735171880E-1,3.265510872E-2,1.608844548E-1,5.969025940E-2
8.784796880E-1,3.265510872E-2,1.608844548E-1,5.969025940E-2
8.834421880E-1,2.918190509E-2,1.412494928E-1,5.820672959E-2
8.884062500E-1,2.918190509E-2,1.412494928E-1,5.820672959E-2
8.933687500E-1,2.731440216E-2,1.197295859E-1,5.393067375E-2
8.983328130E-1,2.731440216E-2,1.197295859E-1,5.393067375E-2
9.032953130E-1,2.612757869E-2,1.095368639E-1,5.133013427E-2
9.082593750E-1,2.612757869E-2,1.095368639E-1,5.133013427E-2
9.132218750E-1,2.719222941E-2,1.151219159E-1,4.780456796E-2
9.181843750E-1,2.719222941E-2,1.151219159E-1,4.780456796E-2
9.231484380E-1,3.150319308E-2,1.074075624E-1,4.324925691E-2
9.281109380E-1,3.150319308E-2,1.074075624E-1,4.324925691E-2
9.330750000E-1,4.436627030E-2,9.955357760E-2,3.850196302E-2
9.380375000E-1,4.436627030E-2,9.955357760E-2,3.850196302E-2
9.430015630E-1,5.771803856E-2,9.368927032E-2,3.471459821E-2
9.479640630E-1,5.771803856E-2,9.368927032E-2,3.471459821E-2
9.529265630E-1,5.934119597E-2,8.787732571E-2,3.174753860E-2
9.578906250E-1,5.934119597E-2,8.787732571E-2,3.174753860E-2
9.628531250E-1,4.941027239E-2,7.476990670E-2,2.816961333E-2
9.678171880E-1,4.941027239E-2,7.476990670E-2,2.816961333E-2
9.727796880E-1,5.487314984E-2,4.968952388E-2,2.008873969E-2
9.777437500E-1,5.487314984E-2,4.968952388E-2,2.008873969E-2
9.827062500E-1,7.281513512E-2,1.275835652E-2,7.504915819E-3
9.876687500E-1,7.281513512E-2,1.275835652E-2,7.504915819E-3
9.926328130E-1,9.463175386E-2,-3.609341010E-2,-8.080874570E-3
9.975953130E-1,9.463175386E-2,-3.609341010E-2,-8.080874570E-3
1.002559375E0,1.124864668E-1,-6.131341681E-2,-1.808161102E-2
1.007521875E0,1.124864668E-1,-6.131341681E-2,-1.808161102E-2
1.012485938E0,1.255938858E-1,-5.719443783E-2,-1.858775690E-2
1.017448438E0,1.255938858E-1,-5.719443783E-2,-1.858775690E-2
1.022410938E0,1.343030781E-1,-3.958406672E-2,-1.490511186E-2
1.027375000E0,1.343030781E-1,-3.958406672E-2,-1.490511186E-2
1.032337500E0,1.375319511E-1,-1.286307629E-2,-8.517206647E-3
1.037301563E0,1.375319511E-1,-1.286307629E-2,-8.517206647E-3
1.042264063E0,1.375842988E-1,-8.464846760E-3,-7.330382708E-3
1.047228125E0,1.375842988E-1,-8.464846760E-3,-7.330382708E-3
1.052190625E0,1.321912408E-1,-1.972221956E-2,-9.093165398E-3
1.057153125E0,1.321912408E-1,-1.972221956E-2,-9.093165398E-3
1.062117188E0,1.225744709E-1,-3.469714522E-2,-1.120501384E-2
1.067079688E0,1.225744709E-1,-3.469714522E-2,-1.120501384E-2
1.072042188E0,1.130449772E-1,-5.682792142E-2,-1.488765888E-2
1.077006250E0,1.130449772E-1,-5.682792142E-2,-1.488765888E-2
1.081968750E0,1.048768312E-1,-8.908160776E-2,-2.136282995E-2
1.086932813E0,1.048768312E-1,-8.908160776E-2,-2.136282995E-2
1.091895313E0,1.052608043E-1,-1.827883273E-1,-3.750712425E-2
1.096859375E0,1.052608043E-1,-1.827883273E-1,-3.750712425E-2
1.101821875E0,9.986773878E-2,-2.871764600E-1,-5.047492310E-2
1.106785938E0,9.986773878E-2,-2.871764600E-1,-5.047492310E-2
1.111748438E0,9.356710315E-2,-3.912678957E-1,-5.953317881E-2
1.116710938E0,9.356710315E-2,-3.912678957E-1,-5.953317881E-2
1.121675000E0,8.443903178E-2,-4.295080602E-1,-5.284857005E-2
1.126637500E0,8.443903178E-2,-4.295080602E-1,-5.284857005E-2
1.131601563E0,6.298892945E-2,-3.947411180E-1,-3.584906086E-2
1.136564063E0,6.298892945E-2,-3.947411180E-1,-3.584906086E-2
1.141526563E0,3.569198400E-2,-3.266209066E-1,-2.117084339E-2
1.146490625E0,3.569198400E-2,-3.266209066E-1,-2.117084339E-2
1.151453125E0,1.495747175E-2,-3.194650710E-1,-1.459095255E-2
1.156417188E0,1.495747175E-2,-3.194650710E-1,-1.459095255E-2
1.161379688E0,3.769911127E-3,-3.042457998E-1,-1.378810126E-2
1.166343750E0,3.769911127E-3,-3.042457998E-1,-1.378810126E-2
1.171306250E0,2.949606394E-3,-2.780309618E-1,-6.824237294E-3
1.176268750E0,2.949606394E-3,-2.780309618E-1,-6.824237294E-3
1.181232813E0,1.431170036E-3,-2.205398083E-1,2.967059612E-3
1.186195313E0,1.431170036E-3,-2.205398083E-1,2.967059612E-3
1.191159375E0,-7.853982039E-3,-1.768367589E-1,1.384046115E-2
1.196121875E0,-7.853982039E-3,-1.768367589E-1,1.384046115E-2
1.201085938E0,-2.352703735E-2,-1.433264315E-1,2.914699912E-2
1.206048438E0,-2.352703735E-2,-1.433264315E-1,2.914699912E-2
1.211010938E0,-4.221951589E-2,-9.595820308E-2,5.134758726E-2
1.215975000E0,-4.221951589E-2,-9.595820308E-2,5.134758726E-2
1.220937500E0,-6.038839370E-2,-3.940953314E-2,7.534586638E-2
1.225901563E0,-6.038839370E-2,-3.940953314E-2,7.534586638E-2
1.230864063E0,-8.251916617E-2,2.558652684E-2,1.002342552E-1
1.235828125E0,-8.251916617E-2,2.558652684E-2,1.002342552E-1
1.240790625E0,-1.062556431E-1,7.541567832E-2,1.174606606E-1
1.245753125E0,-1.062556431E-1,7.541567832E-2,1.174606606E-1
1.250717188E0,-1.340587437E-1,1.324704885E-1,1.310916841E-1
1.255679688E0,-1.340587437E-1,1.324704885E-1,1.310916841E-1
1.260643750E0,-1.548979729E-1,1.521054506E-1,1.424363256E-1
1.265606250E0,-1.548979729E-1,1.521054506E-1,1.424363256E-1
1.270570313E0,-1.601688713E-1,1.987231821E-1,1.597150862E-1
1.275532813E0,-1.601688713E-1,1.987231821E-1,1.597150862E-1
1.280495313E0,-1.514073163E-1,3.331833482E-1,1.916196942E-1
1.285459375E0,-1.514073163E-1,3.331833482E-1,1.916196942E-1
1.290421875E0,-1.469392627E-1,4.336270392E-1,2.220233381E-1
1.295385938E0,-1.469392627E-1,4.336270392E-1,2.220233381E-1
1.300348438E0,-1.436405927E-1,4.855855107E-1,2.437701374E-1
1.305312500E0,-1.436405927E-1,4.855855107E-1,2.437701374E-1
1.310275000E0,-1.386140436E-1,5.264959931E-1,2.614677846E-1
1.315237500E0,-1.386140436E-1,5.264959931E-1,2.614677846E-1
1.320201563E0,-1.298001409E-1,5.075941086E-1,2.612583339E-1
1.325164063E0,-1.298001409E-1,5.075941086E-1,2.612583339E-1
1.330128125E0,-1.215796322E-1,4.332605302E-1,2.410648763E-1
1.335090625E0,-1.215796322E-1,4.332605302E-1,2.410648763E-1
1.340053125E0,-1.152440906E-1,3.194301724E-1,2.087588310E-1
1.345017188E0,-1.152440906E-1,3.194301724E-1,2.087588310E-1
1.349979688E0,-1.121025011E-1,1.722989082E-1,1.726130694E-1
1.354943750E0,-1.121025011E-1,1.722989082E-1,1.726130694E-1
1.359906250E0,-1.155058891E-1,8.180358261E-2,1.444783509E-1
1.364870313E0,-1.155058891E-1,8.180358261E-2,1.444783509E-1
1.369832813E0,-1.237962022E-1,1.982693933E-2,1.241627261E-1
1.374795313E0,-1.237962022E-1,1.982693933E-2,1.241627261E-1
1.379759375E0,-1.307775229E-1,-5.235987483E-4,1.099208370E-1
1.384721875E0,-1.307775229E-1,-5.235987483E-4,1.099208370E-1
1.389685938E0,-1.355073601E-1,-1.494001877E-2,9.414306283E-2
1.394648438E0,-1.355073601E-1,-1.494001877E-2,9.414306283E-2
1.399612500E0,-1.332733482E-1,-5.962044746E-2,7.318165898E-2
1.404575000E0,-1.332733482E-1,-5.962044746E-2,7.318165898E-2
1.409537500E0,-1.243896186E-1,-1.058367640E-1,5.106833205E-2
1.414501563E0,-1.243896186E-1,-1.058367640E-1,5.106833205E-2
1.419464063E0,-1.087689176E-1,-1.449321359E-1,3.125884756E-2
1.424428125E0,-1.087689176E-1,-1.449321359E-1,3.125884756E-2
1.429390625E0,-9.335765988E-2,-1.425235868E-1,2.326523885E-2
1.434354688E0,-9.335765988E-2,-1.425235868E-1,2.326523885E-2
1.439317188E0,-8.107054234E-2,-1.371828765E-1,1.719149388E-2
1.444279688E0,-8.107054234E-2,-1.371828765E-1,1.719149388E-2
1.449243750E0,-7.255333662E-2,-1.391551048E-1,9.616764262E-3
1.454206250E0,-7.255333662E-2,-1.391551048E-1,9.616764262E-3
1.459170313E0,-6.082472578E-2,-1.314581931E-1,5.061454605E-3
1.464132813E0,-6.082472578E-2,-1.314581931E-1,5.061454605E-3
1.469095313E0,-4.494222626E-2,-1.126610041E-1,4.886921961E-3
1.474059375E0,-4.494222626E-2,-1.126610041E-1,4.886921961E-3
1.479021875E0,-2.857103944E-2,-8.515461534E-2,7.609635592E-3
1.483985938E0,-2.857103944E-2,-8.515461534E-2,7.609635592E-3
1.488946875E0,-1.394518092E-2,-5.616469681E-2,1.110029407E-2
1.493910938E0,-1.394518092E-2,-5.616469681E-2,1.110029407E-2
1.498873438E0,5.445427261E-3,-3.942698613E-2,1.129228063E-2
1.503839063E0,5.445427261E-3,-3.942698613E-2,1.129228063E-2
1.508800000E0,2.747148275E-2,2.792526793E-4,1.605702937E-2
1.513764063E0,2.747148275E-2,2.792526793E-4,1.605702937E-2
1.518728125E0,4.855506122E-2,3.092723340E-2,1.808161102E-2
1.523690625E0,4.855506122E-2,3.092723340E-2,1.808161102E-2
1.528653125E0,6.436774135E-2,5.560619012E-2,1.551597659E-2
1.533617188E0,6.436774135E-2,5.560619012E-2,1.551597659E-2
1.538581250E0,7.400196046E-2,5.693263933E-2,1.034980267E-2
1.543543750E0,7.400196046E-2,5.693263933E-2,1.034980267E-2
1.548506250E0,7.609635592E-2,5.293583497E-2,7.993607782E-3
1.553468750E0,7.609635592E-2,5.293583497E-2,7.993607782E-3
1.558432813E0,7.195992768E-2,4.476769641E-2,1.780235791E-3
1.563396875E0,7.195992768E-2,4.476769641E-2,1.780235791E-3
1.568357813E0,6.614797562E-2,-1.108284108E-2,-1.661553420E-2
1.573321875E0,6.614797562E-2,-1.108284108E-2,-1.661553420E-2
1.578284375E0,6.087708473E-2,-9.353219718E-2,-4.380776361E-2
1.583248438E0,6.087708473E-2,-9.353219718E-2,-4.380776361E-2
1.588210938E0,5.557128415E-2,-1.680403054E-1,-6.843435764E-2
1.593175000E0,5.557128415E-2,-1.680403054E-1,-6.843435764E-2
1.598137500E0,4.967207089E-2,-2.094395161E-1,-8.117526025E-2
1.603100000E0,4.967207089E-2,-2.094395161E-1,-8.117526025E-2
1.608064063E0,4.539601505E-2,-1.984090358E-1,-8.267624676E-2
1.613026563E0,4.539601505E-2,-1.984090358E-1,-8.267624676E-2
1.617990625E0,3.972369432E-2,-1.890889704E-1,-8.265879005E-2
1.622953125E0,3.972369432E-2,-1.890889704E-1,-8.265879005E-2
1.627915625E0,3.375466913E-2,-1.772730947E-1,-8.419468254E-2
1.632879688E0,3.375466913E-2,-1.772730947E-1,-8.419468254E-2
1.637843750E0,2.843141370E-2,-1.753532290E-1,-8.669050038E-2
1.642806250E0,2.843141370E-2,-1.753532290E-1,-8.669050038E-2
1.647768750E0,2.525491454E-2,-1.721418202E-1,-8.292059600E-2
1.652732813E0,2.525491454E-2,-1.721418202E-1,-8.292059600E-2
1.657695313E0,2.464404888E-2,-1.208989546E-1,-6.941174716E-2
1.662657813E0,2.464404888E-2,-1.208989546E-1,-6.941174716E-2
1.667621875E0,2.520255372E-2,-8.775515109E-2,-5.607742816E-2
1.672584375E0,2.520255372E-2,-8.775515109E-2,-5.607742816E-2
1.677548438E0,2.275909297E-2,-6.295402348E-2,-4.740314186E-2
1.682510938E0,2.275909297E-2,-6.295402348E-2,-4.740314186E-2
1.687475000E0,2.652900480E-2,-2.022836544E-2,-3.431317210E-2
1.692437500E0,2.652900480E-2,-2.022836544E-2,-3.431317210E-2
1.697401563E0,3.750712425E-2,4.949753731E-2,-9.843656793E-3
1.702364063E0,3.750712425E-2,4.949753731E-2,-9.843656793E-3
1.707326563E0,4.776966199E-2,1.648288965E-1,2.822197415E-2
1.712290625E0,4.776966199E-2,1.648288965E-1,2.822197415E-2
1.717253125E0,5.101597309E-2,3.237062097E-1,7.815584540E-2
1.722217188E0,5.101597309E-2,3.237062097E-1,7.815584540E-2
1.727179688E0,4.457570985E-2,4.846604764E-1,1.293114424E-1
1.732142188E0,4.457570985E-2,4.846604764E-1,1.293114424E-1
1.737106250E0,3.188716620E-2,6.126280427E-1,1.705361158E-1
1.742068750E0,3.188716620E-2,6.126280427E-1,1.705361158E-1
1.747032813E0,2.021091245E-2,6.902253628E-1,1.979552358E-1
1.751995313E0,2.021091245E-2,6.902253628E-1,1.979552358E-1
1.756957813E0,1.511455141E-2,7.256031632E-1,2.112371922E-1
1.761921875E0,1.511455141E-2,7.256031632E-1,2.112371922E-1
1.766884375E0,1.082104165E-3,7.255159020E-1,2.176076472E-1
1.771848438E0,1.082104165E-3,7.255159020E-1,2.176076472E-1
1.776810938E0,-3.560471535E-2,7.151312232E-1,2.223723978E-1
1.781775000E0,-3.560471535E-2,7.151312232E-1,2.223723978E-1
1.786737500E0,-8.803440630E-2,6.954264641E-1,2.208016068E-1
1.791700000E0,-8.803440630E-2,6.954264641E-1,2.208016068E-1
1.796664063E0,-1.341983676E-1,6.593679190E-1,2.135584801E-1
1.801628125E0,-1.341983676E-1,6.593679190E-1,2.135584801E-1
1.806590625E0,-1.646718085E-1,5.960997343E-1,1.998751014E-1
1.811553125E0,-1.646718085E-1,5.960997343E-1,1.998751014E-1
1.816515625E0,-1.854586899E-1,5.258153677E-1,1.845860183E-1
1.821479688E0,-1.854586899E-1,5.258153677E-1,1.845860183E-1
1.826443750E0,-1.934697479E-1,4.903677106E-1,1.735380888E-1
1.831406250E0,-1.934697479E-1,4.903677106E-1,1.735380888E-1
1.836368750E0,-1.881988496E-1,4.772428274E-1,1.672199965E-1
1.841332813E0,-1.881988496E-1,4.772428274E-1,1.672199965E-1
1.846295313E0,-1.759117395E-1,4.636467099E-1,1.622283608E-1
1.851259375E0,-1.759117395E-1,4.636467099E-1,1.622283608E-1
1.856221875E0,-1.639387757E-1,4.601909518E-1,1.590169519E-1
1.861184375E0,-1.639387757E-1,4.601909518E-1,1.590169519E-1
1.866148438E0,-1.511280537E-1,4.719370306E-1,1.599768847E-1
1.871110938E0,-1.511280537E-1,4.719370306E-1,1.599768847E-1
1.876075000E0,-1.355771720E-1,4.767715931E-1,1.632930040E-1
1.881037500E0,-1.355771720E-1,4.767715931E-1,1.632930040E-1
1.886001563E0,-1.182984188E-1,4.810825586E-1,1.658237278E-1
1.890964063E0,-1.182984188E-1,4.810825586E-1,1.658237278E-1
1.895928125E0,-1.022937447E-1,4.810301960E-1,1.658237278E-1
1.900890625E0,-1.022937447E-1,4.810301960E-1,1.658237278E-1
1.905853125E0,-9.173450619E-2,4.694586694E-1,1.589645892E-1
1.910817188E0,-9.173450619E-2,4.694586694E-1,1.589645892E-1
1.915779688E0,-7.852236181E-2,4.750437140E-1,1.565211266E-1
1.920743750E0,-7.852236181E-2,4.750437140E-1,1.565211266E-1
1.925706250E0,-6.379178166E-2,4.852364361E-1,1.559626162E-1
1.930668750E0,-6.379178166E-2,4.852364361E-1,1.559626162E-1
1.935632813E0,-4.820599407E-2,4.799481034E-1,1.525592357E-1
1.940595313E0,-4.820599407E-2,4.799481034E-1,1.525592357E-1
1.945559375E0,-3.296926990E-2,4.813443422E-1,1.514596790E-1
1.950521875E0,-3.296926990E-2,4.813443422E-1,1.514596790E-1
1.955485938E0,-1.928588748E-2,5.050982833E-1,1.527512223E-1
1.960448438E0,-1.928588748E-2,5.050982833E-1,1.527512223E-1
1.965410938E0,-5.235987715E-3,5.313480496E-1,1.496270746E-1
1.970375000E0,-5.235987715E-3,5.313480496E-1,1.496270746E-1
1.975337500E0,7.051130291E-3,5.400921106E-1,1.395914257E-1
1.980301563E0,7.051130291E-3,5.400921106E-1,1.395914257E-1
1.985264063E0,1.722639985E-2,5.799030662E-1,1.297826767E-1
1.990226563E0,1.722639985E-2,5.799030662E-1,1.297826767E-1
1.995190625E0,2.696533687E-2,5.982465148E-1,1.196946800E-1
2.000153125E0,2.696533687E-2,5.982465148E-1,1.196946800E-1
2.005117188E0,3.764675185E-2,5.964313745E-1,1.087340117E-1
2.010079688E0,3.764675185E-2,5.964313745E-1,1.087340117E-1
2.015043750E0,5.206317082E-2,5.467941761E-1,8.356636763E-2
2.020006250E0,5.206317082E-2,5.467941761E-1,8.356636763E-2
2.024968750E0,7.131415606E-2,3.965562582E-1,3.424336016E-2
2.029932813E0,7.131415606E-2,3.965562582E-1,3.424336016E-2
2.034895313E0,9.606292099E-2,1.523323357E-1,-4.176572710E-2
2.039859375E0,9.606292099E-2,1.523323357E-1,-4.176572710E-2
2.044821875E0,1.232726052E-1,-1.041263416E-1,-1.221381426E-1
2.049785938E0,1.232726052E-1,-1.041263416E-1,-1.221381426E-1
2.054748438E0,1.528210342E-1,-3.475299478E-1,-1.869945824E-1
2.059710938E0,1.528210342E-1,-3.475299478E-1,-1.869945824E-1
2.064675000E0,1.858426630E-1,-4.797211885E-1,-2.244668007E-1
2.069637500E0,1.858426630E-1,-4.797211885E-1,-2.244668007E-1
2.074601563E0,2.216219008E-1,-5.551717877E-1,-2.411172390E-1
2.079564063E0,2.216219008E-1,-5.551717877E-1,-2.411172390E-1
2.084528125E0,2.555510998E-1,-5.809677243E-1,-2.474004179E-1
2.089490625E0,2.555510998E-1,-5.809677243E-1,-2.474004179E-1
2.094453125E0,2.785894573E-1,-6.167993546E-1,-2.557081878E-1
2.099417188E0,2.785894573E-1,-6.167993546E-1,-2.557081878E-1
2.104379688E0,2.892708778E-1,-6.124534607E-1,-2.615899444E-1
2.109342188E0,2.892708778E-1,-6.124534607E-1,-2.615899444E-1
2.114306250E0,2.883807421E-1,-6.376211047E-1,-2.689377964E-1
2.119268750E0,2.883807421E-1,-6.376211047E-1,-2.689377964E-1
2.124232813E0,2.817136049E-1,-6.486865282E-1,-2.748020887E-1
2.129195313E0,2.817136049E-1,-6.486865282E-1,-2.748020887E-1
2.134157813E0,2.770012021E-1,-6.156299710E-1,-2.783974707E-1
2.139121875E0,2.770012021E-1,-6.156299710E-1,-2.783974707E-1
2.144084375E0,2.721317410E-1,-5.871112943E-1,-2.785196304E-1
2.149048438E0,2.721317410E-1,-5.871112943E-1,-2.785196304E-1
2.154010938E0,2.680476606E-1,-5.668480396E-1,-2.754304111E-1
2.158975000E0,2.680476606E-1,-5.668480396E-1,-2.754304111E-1
2.163937500E0,2.653424144E-1,-5.290965438E-1,-2.641206682E-1
2.168901563E0,2.653424144E-1,-5.290965438E-1,-2.641206682E-1
2.173864063E0,2.670528293E-1,-4.845906794E-1,-2.491457462E-1
2.178826563E0,2.670528293E-1,-4.845906794E-1,-2.491457462E-1
2.183790625E0,2.759714723E-1,-4.718846679E-1,-2.371727973E-1
2.188754688E0,2.759714723E-1,-4.718846679E-1,-2.371727973E-1
2.193717188E0,2.842268646E-1,-4.258079827E-1,-2.268927991E-1
2.198679688E0,2.842268646E-1,-4.258079827E-1,-2.268927991E-1
2.203643750E0,2.902831733E-1,-3.848625422E-1,-2.163510174E-1
2.208606250E0,2.902831733E-1,-3.848625422E-1,-2.163510174E-1
2.213570313E0,2.882760167E-1,-3.379131854E-1,-2.037148327E-1
2.218532813E0,2.882760167E-1,-3.379131854E-1,-2.037148327E-1
2.223496875E0,2.855533063E-1,-3.230255246E-1,-1.907121241E-1
2.228457813E0,2.855533063E-1,-3.230255246E-1,-1.907121241E-1
2.233421875E0,2.840872407E-1,-3.263765574E-1,-1.822123677E-1
2.238384375E0,2.840872407E-1,-3.263765574E-1,-1.822123677E-1
2.243348438E0,2.812074423E-1,-3.528532088E-1,-1.778141409E-1
2.248312500E0,2.812074423E-1,-3.528532088E-1,-1.778141409E-1
2.253273438E0,2.742261291E-1,-3.801327050E-1,-1.757546514E-1
2.258237500E0,2.742261291E-1,-3.801327050E-1,-1.757546514E-1
2.263201563E0,2.655692995E-1,-4.175700247E-1,-1.777617782E-1
2.268164063E0,2.655692995E-1,-4.175700247E-1,-1.777617782E-1
2.273128125E0,2.572440803E-1,-4.524766207E-1,-1.796467453E-1
2.278090625E0,2.572440803E-1,-4.524766207E-1,-1.796467453E-1
2.283054688E0,2.461088747E-1,-4.689350724E-1,-1.773254573E-1
2.288017188E0,2.461088747E-1,-4.689350724E-1,-1.773254573E-1
2.292981250E0,2.309943289E-1,-4.595975578E-1,-1.713913381E-1
2.297943750E0,2.309943289E-1,-4.595975578E-1,-1.713913381E-1
2.302906250E0,2.168222517E-1,-4.573809803E-1,-1.653175801E-1
2.307870313E0,2.168222517E-1,-4.573809803E-1,-1.653175801E-1
2.312832813E0,1.995958537E-1,-4.458967149E-1,-1.570098251E-1
2.317796875E0,1.995958537E-1,-4.458967149E-1,-1.570098251E-1
2.322759375E0,1.819331199E-1,-4.338190258E-1,-1.477595717E-1
2.327723438E0,1.819331199E-1,-4.338190258E-1,-1.477595717E-1
2.332685938E0,1.620014608E-1,-4.035550356E-1,-1.351059377E-1
2.337648438E0,1.620014608E-1,-4.035550356E-1,-1.351059377E-1
2.342612500E0,1.414414793E-1,-3.454006612E-1,-1.165705398E-1
2.347575000E0,1.414414793E-1,-3.454006612E-1,-1.165705398E-1
2.352539063E0,1.245816052E-1,-2.677684128E-1,-9.487609565E-2
2.357501563E0,1.245816052E-1,-2.677684128E-1,-9.487609565E-2
2.362464063E0,9.902998060E-2,-2.083748579E-1,-7.658504695E-2
2.367428125E0,9.902998060E-2,-2.083748579E-1,-7.658504695E-2
2.372390625E0,6.302383542E-2,-1.813571602E-1,-6.452482194E-2
2.377354688E0,6.302383542E-2,-1.813571602E-1,-6.452482194E-2
2.382317188E0,1.968731359E-2,-1.803274155E-1,-5.763076991E-2
2.387281250E0,1.968731359E-2,-1.803274155E-1,-5.763076991E-2
2.392243750E0,-2.251474746E-2,-1.387711316E-1,-4.379031062E-2
2.397206250E0,-2.251474746E-2,-1.387711316E-1,-4.379031062E-2
2.402170313E0,-5.016076192E-2,-8.237954229E-2,-2.701769583E-2
2.407132813E0,-5.016076192E-2,-8.237954229E-2,-2.701769583E-2
2.412096875E0,-5.921902135E-2,-2.822197415E-2,-1.258382387E-2
2.417059375E0,-5.921902135E-2,-2.822197415E-2,-1.258382387E-2
2.422021875E0,-5.733406544E-2,-8.744099177E-3,-3.560471581E-3
2.426984375E0,-5.733406544E-2,-8.744099177E-3,-3.560471581E-3
2.431948438E0,-5.052728206E-2,-1.099557383E-3,1.396263367E-3
2.436912500E0,-5.052728206E-2,-1.099557383E-3,1.396263367E-3
2.441875000E0,-4.178318381E-2,1.708677411E-2,5.986479111E-3
2.446837500E0,-4.178318381E-2,1.708677411E-2,5.986479111E-3
2.451801563E0,-3.502875939E-2,2.581341937E-2,1.342158206E-2
2.456764063E0,-3.502875939E-2,2.581341937E-2,1.342158206E-2
2.461728125E0,-3.108431399E-2,3.174753860E-2,2.309070528E-2
2.466692188E0,-3.108431399E-2,3.174753860E-2,2.309070528E-2
2.471653125E0,-2.837905288E-2,7.429866493E-2,3.632030264E-2
2.476617188E0,-2.837905288E-2,7.429866493E-2,3.632030264E-2
2.481579688E0,-2.419026382E-2,1.350710243E-1,4.895648360E-2
2.486543750E0,-2.419026382E-2,1.350710243E-1,4.895648360E-2
2.491506250E0,-2.132792398E-2,2.115688175E-1,6.202900037E-2
2.496470313E0,-2.132792398E-2,2.115688175E-1,6.202900037E-2
2.501432813E0,-1.946042106E-2,2.774200737E-1,7.230898738E-2
2.506396875E0,-1.946042106E-2,2.774200737E-1,7.230898738E-2
2.511359375E0,-1.891936921E-2,3.132517040E-1,8.105309308E-2
2.516323438E0,-1.891936921E-2,3.132517040E-1,8.105309308E-2
2.521285938E0,-2.003637888E-2,3.242472708E-1,8.477064222E-2
2.526248438E0,-2.003637888E-2,3.242472708E-1,8.477064222E-2
2.531212500E0,-1.989675313E-2,3.128677309E-1,8.346164227E-2
2.536175000E0,-1.989675313E-2,3.128677309E-1,8.346164227E-2
2.541137500E0,-1.942551509E-2,3.082425892E-1,8.122762293E-2
2.546100000E0,-1.942551509E-2,3.082425892E-1,8.122762293E-2
2.551065625E0,-2.035053819E-2,3.014183640E-1,7.820820063E-2
2.556026563E0,-2.035053819E-2,3.014183640E-1,7.820820063E-2
2.560990625E0,-2.439970337E-2,2.879269719E-1,7.044149190E-2
2.565954688E0,-2.439970337E-2,2.879269719E-1,7.044149190E-2
2.570917188E0,-3.178244457E-2,2.713288963E-1,6.171484292E-2
2.575881250E0,-3.178244457E-2,2.713288963E-1,6.171484292E-2
2.580843750E0,-4.408701509E-2,2.466324717E-1,5.391322076E-2
2.585806250E0,-4.408701509E-2,2.466324717E-1,5.391322076E-2
2.590770313E0,-5.597271025E-2,2.232450694E-1,4.710643739E-2
2.595732813E0,-5.597271025E-2,2.232450694E-1,4.710643739E-2
2.600696875E0,-6.724753231E-2,2.147802114E-1,4.227187485E-2
2.605659375E0,-6.724753231E-2,2.147802114E-1,4.227187485E-2
2.610621875E0,-7.447320223E-2,1.879719645E-1,3.836233541E-2
2.615584375E0,-7.447320223E-2,1.879719645E-1,3.836233541E-2
2.620548438E0,-7.880161703E-2,1.944471300E-1,3.543018550E-2
2.625510938E0,-7.880161703E-2,1.944471300E-1,3.543018550E-2
2.630475000E0,-7.782422751E-2,1.997703910E-1,3.300417587E-2
2.635439063E0,-7.782422751E-2,1.997703910E-1,3.300417587E-2
2.640401563E0,-7.302457839E-2,1.918465942E-1,3.029891662E-2
2.645365625E0,-7.302457839E-2,1.918465942E-1,3.029891662E-2
2.650328125E0,-6.729989499E-2,1.778665036E-1,2.926917188E-2
2.655292188E0,-6.729989499E-2,1.778665036E-1,2.926917188E-2
2.660254688E0,-6.145304441E-2,1.915324330E-1,3.120648675E-2
2.665217188E0,-6.145304441E-2,1.915324330E-1,3.120648675E-2
2.670181250E0,-5.553637818E-2,2.134014070E-1,3.471459821E-2
2.675143750E0,-5.553637818E-2,2.134014070E-1,3.471459821E-2
2.680107813E0,-5.110324174E-2,2.363001257E-1,3.666936606E-2
2.685070313E0,-5.110324174E-2,2.363001257E-1,3.666936606E-2
2.690034375E0,-4.761258140E-2,2.658834457E-1,3.932226822E-2
2.694996875E0,-4.761258140E-2,2.658834457E-1,3.932226822E-2
2.699959375E0,-4.408701509E-2,2.950304449E-1,4.138175771E-2
2.704923438E0,-4.408701509E-2,2.950304449E-1,4.138175771E-2
2.709885938E0,-7.487462368E-3,5.614724010E-2,8.360126987E-3
2.714850000E0,-7.487462368E-3,5.614724010E-2,8.360126987E-3
2.719812500E0,-7.208209950E-3,6.518805027E-2,1.033234876E-2
2.724776563E0,-7.208209950E-3,6.518805027E-2,1.033234876E-2
2.729739063E0,-6.754423957E-3,7.627088577E-2,1.249655709E-2
2.734701563E0,-6.754423957E-3,7.627088577E-2,1.249655709E-2
2.739665625E0,-5.881759338E-3,9.026842564E-2,1.523672417E-2
2.744628125E0,-5.881759338E-3,9.026842564E-2,1.523672417E-2
2.749590625E0,-4.677482415E-3,1.065872535E-1,1.853539608E-2
2.754554688E0,-4.677482415E-3,1.065872535E-1,1.853539608E-2
2.759517188E0,-1.902408898E-2,6.130992770E-1,1.096415818E-1
2.764481250E0,-1.902408898E-2,6.130992770E-1,1.096415818E-1
2.769443750E0,-1.336922217E-2,5.841966271E-1,1.058716699E-1
2.774407813E0,-1.336922217E-2,5.841966271E-1,1.058716699E-1
2.779370313E0,-9.861109778E-3,5.518207550E-1,9.651670605E-2
2.784334375E0,-9.861109778E-3,5.518207550E-1,9.651670605E-2
2.789296875E0,-8.133234456E-3,4.847826660E-1,8.377580345E-2
2.794259375E0,-8.133234456E-3,4.847826660E-1,8.377580345E-2
2.799223438E0,-6.806783844E-3,4.208337963E-1,7.269296050E-2
2.804185938E0,-6.806783844E-3,4.208337963E-1,7.269296050E-2
2.809150000E0,-6.911503617E-3,3.701319695E-1,6.438519806E-2
2.814112500E0,-6.911503617E-3,3.701319695E-1,6.438519806E-2
2.819076563E0,-7.784168236E-3,3.119775951E-1,5.323254317E-2
2.824039063E0,-7.784168236E-3,3.119775951E-1,5.323254317E-2
2.829001563E0,-7.033676840E-3,2.316749990E-1,3.358013555E-2
2.833965625E0,-7.033676840E-3,2.316749990E-1,3.358013555E-2
2.838928125E0,-4.345869645E-3,1.125737354E-1,6.422811653E-3
2.843890625E0,-4.345869645E-3,1.125737354E-1,6.422811653E-3
2.848854688E0,-4.101523664E-3,-8.185594343E-3,-2.169444226E-2
2.853817188E0,-4.101523664E-3,-8.185594343E-3,-2.169444226E-2
2.858781250E0,-5.131267942E-3,-1.105666086E-1,-4.392993823E-2
2.863743750E0,-5.131267942E-3,-1.105666086E-1,-4.392993823E-2
2.868707813E0,-4.450589418E-3,-1.456651837E-1,-5.042256042E-2
2.873670313E0,-4.450589418E-3,-1.456651837E-1,-5.042256042E-2
2.878634375E0,-2.373647876E-3,-1.295906901E-1,-4.511675984E-2
2.883596875E0,-2.373647876E-3,-1.295906901E-1,-4.511675984E-2
2.888559375E0,-1.919862116E-4,-9.766862541E-2,-3.625048697E-2
2.893523438E0,-1.919862116E-4,-9.766862541E-2,-3.625048697E-2
2.898485938E0,-4.712388909E-4,-6.630505621E-2,-2.848377265E-2
2.903450000E0,-4.712388909E-4,-6.630505621E-2,-2.848377265E-2
2.908410938E0,4.834562074E-3,-4.192280769E-2,-2.256710641E-2
2.913375000E0,4.834562074E-3,-4.192280769E-2,-2.256710641E-2
2.918339063E0,1.649336144E-2,-2.747148275E-2,-1.926843449E-2
2.923301563E0,1.649336144E-2,-2.747148275E-2,-1.926843449E-2
2.928265625E0,3.260274976E-2,-1.340412907E-2,-1.586504281E-2
2.933228125E0,3.260274976E-2,-1.340412907E-2,-1.586504281E-2
2.938190625E0,4.319689795E-2,1.621410809E-2,-8.080874570E-3
2.943154688E0,4.319689795E-2,1.621410809E-2,-8.080874570E-3
2.948117188E0,4.553563893E-2,5.728170648E-2,4.712388851E-3
2.953081250E0,4.553563893E-2,5.728170648E-2,4.712388851E-3
2.958043750E0,4.213224724E-2,1.054353416E-1,1.867502369E-2
2.963007813E0,4.213224724E-2,1.054353416E-1,1.867502369E-2
2.967970313E0,3.555235639E-2,1.595056355E-1,3.244566917E-2
2.972932813E0,3.555235639E-2,1.595056355E-1,3.244566917E-2
2.977895313E0,2.878047898E-2,1.984090358E-1,4.431391135E-2
2.982859375E0,2.878047898E-2,1.984090358E-1,4.431391135E-2
2.987821875E0,2.316051908E-2,2.125985622E-1,5.553637818E-2
2.992785938E0,2.316051908E-2,2.125985622E-1,5.553637818E-2
2.997748438E0,1.888446324E-2,2.120226026E-1,6.560692936E-2
3.002712500E0,1.888446324E-2,2.120226026E-1,6.560692936E-2
3.007676563E0,1.661553420E-2,1.981297731E-1,7.351326942E-2
3.012639063E0,1.661553420E-2,1.981297731E-1,7.351326942E-2
3.017601563E0,1.239183731E-2,2.231927067E-1,8.222246170E-2
3.022564063E0,1.239183731E-2,2.231927067E-1,8.222246170E-2
3.027528125E0,6.702064537E-3,2.411172390E-1,8.758062124E-2
3.032490625E0,6.702064537E-3,2.411172390E-1,8.758062124E-2
3.037454688E0,-8.726646192E-4,2.492330223E-1,8.998917788E-2
3.042417188E0,-8.726646192E-4,2.492330223E-1,8.998917788E-2
3.047379688E0,-1.101302728E-2,2.459692508E-1,8.902924508E-2
3.052343750E0,-1.101302728E-2,2.459692508E-1,8.902924508E-2
3.057306250E0,-1.987930015E-2,2.144835144E-1,8.340928704E-2
3.062270313E0,-1.987930015E-2,2.144835144E-1,8.340928704E-2
3.067232813E0,-2.806489356E-2,1.705535799E-1,7.387978584E-2
3.072196875E0,-2.806489356E-2,1.705535799E-1,7.387978584E-2
3.077159375E0,-3.597123548E-2,1.350884885E-1,6.361725181E-2
3.082123438E0,-3.597123548E-2,1.350884885E-1,6.361725181E-2
3.087085938E0,-3.797836602E-2,1.051037237E-1,5.560619012E-2
3.092048438E0,-3.797836602E-2,1.051037237E-1,5.560619012E-2
3.097012500E0,-3.616322204E-2,9.424778074E-2,4.972442985E-2
3.101976563E0,-3.616322204E-2,9.424778074E-2,4.972442985E-2
3.106939063E0,-2.930407785E-2,8.347909898E-2,4.148647562E-2
3.111901563E0,-2.930407785E-2,8.347909898E-2,4.148647562E-2
3.116864063E0,-2.087413706E-2,4.574507847E-2,3.031636961E-2
3.121828125E0,-2.087413706E-2,4.574507847E-2,3.031636961E-2
3.126790625E0,-1.439896598E-2,1.277581044E-2,2.118829638E-2
3.131754688E0,-1.439896598E-2,1.277581044E-2,2.118829638E-2
3.136717188E0,-1.246165112E-2,-1.237438433E-2,1.488765888E-2
3.141681250E0,-1.246165112E-2,-1.237438433E-2,1.488765888E-2
3.146643750E0,-1.675516134E-3,-2.539454028E-2,1.110029407E-2
3.151606250E0,-1.675516134E-3,-2.539454028E-2,1.110029407E-2
3.156570313E0,1.966986060E-2,-4.089306295E-2,7.888888009E-3
3.161532813E0,1.966986060E-2,-4.089306295E-2,7.888888009E-3
3.166496875E0,4.384266958E-2,-5.581562966E-2,5.113814492E-3
3.171459375E0,4.384266958E-2,-5.581562966E-2,5.113814492E-3
3.176423438E0,5.796238407E-2,-6.354743987E-2,2.548180753E-3
3.181385938E0,5.796238407E-2,-6.354743987E-2,2.548180753E-3
3.186348438E0,5.815437064E-2,-7.648032904E-2,-2.076941775E-3
3.191312500E0,5.815437064E-2,-7.648032904E-2,-2.076941775E-3
3.196275000E0,4.897394031E-2,-9.772098809E-2,-7.853982039E-3
3.201239063E0,4.897394031E-2,-9.772098809E-2,-7.853982039E-3
3.206201563E0,3.926990926E-2,-1.159945801E-1,-1.403244678E-2
3.211165625E0,3.926990926E-2,-1.159945801E-1,-1.403244678E-2
3.216128125E0,3.260274976E-2,-1.251924634E-1,-1.708677411E-2
3.221090625E0,3.260274976E-2,-1.251924634E-1,-1.708677411E-2
3.226054688E0,2.855358645E-2,-1.209164113E-1,-1.551597659E-2
3.231017188E0,2.855358645E-2,-1.209164113E-1,-1.551597659E-2
3.235981250E0,2.473131567E-2,-9.943141043E-2,-1.068141498E-2
3.240943750E0,2.473131567E-2,-9.943141043E-2,-1.068141498E-2
3.245906250E0,1.888446324E-2,-7.326892018E-2,-6.126105785E-3
3.250870313E0,1.888446324E-2,-7.326892018E-2,-6.126105785E-3
3.255832813E0,1.495747175E-2,-6.422811747E-2,-4.101523664E-3
3.260796875E0,1.495747175E-2,-6.422811747E-2,-4.101523664E-3
3.265759375E0,1.445132587E-2,-5.996951461E-2,-2.356194425E-3
3.270723438E0,1.445132587E-2,-5.996951461E-2,-2.356194425E-3
3.275685938E0,1.408480667E-2,-3.764675185E-2,0.000000000E0
3.280648438E0,1.408480667E-2,-3.764675185E-2,0.000000000E0
3.285612500E0,1.399754081E-2,-2.981022373E-2,5.759586347E-4
3.290575000E0,1.399754081E-2,-2.981022373E-2,5.759586347E-4
3.295539063E0,1.321214251E-2,-3.494149074E-2,-1.727875904E-3
3.300501563E0,1.321214251E-2,-3.494149074E-2,-1.727875904E-3
3.305465625E0,1.284562331E-2,-5.701990798E-2,-7.522369269E-3
3.310428125E0,1.284562331E-2,-5.701990798E-2,-7.522369269E-3
3.315390625E0,1.256637089E-2,-7.019714266E-2,-1.104793418E-2
3.320354688E0,1.256637089E-2,-7.019714266E-2,-1.104793418E-2
3.325317188E0,1.158898603E-2,-6.424556673E-2,-1.010545623E-2
3.330281250E0,1.158898603E-2,-6.424556673E-2,-1.010545623E-2
3.335243750E0,1.160643995E-2,-1.055924222E-1,-1.968731359E-2
3.340207813E0,1.160643995E-2,-1.055924222E-1,-1.968731359E-2
3.345170313E0,1.326450240E-2,-1.934522986E-1,-3.967133537E-2
3.350132813E0,1.326450240E-2,-1.934522986E-1,-3.967133537E-2
3.355096875E0,1.598721556E-2,-2.998999357E-1,-6.096434966E-2
3.360059375E0,1.598721556E-2,-2.998999357E-1,-6.096434966E-2
3.365023438E0,1.750565320E-2,-3.620859981E-1,-7.295475900E-2
3.369985938E0,1.750565320E-2,-3.620859981E-1,-7.295475900E-2
3.374950000E0,1.694714651E-2,-3.661700785E-1,-7.349581271E-2
3.379912500E0,1.694714651E-2,-3.661700785E-1,-7.349581271E-2
3.384875000E0,1.541125681E-2,-3.357490003E-1,-6.503096968E-2
3.389839063E0,1.541125681E-2,-3.357490003E-1,-6.503096968E-2
3.394801563E0,1.356120780E-2,-3.036000133E-1,-5.581562966E-2
3.399765625E0,1.356120780E-2,-3.036000133E-1,-5.581562966E-2
3.404728125E0,1.090830751E-2,-2.615550458E-1,-4.787437990E-2
3.409692188E0,1.090830751E-2,-2.615550458E-1,-4.787437990E-2
3.414654688E0,9.407324716E-3,-2.342580855E-1,-4.201007634E-2
3.419617188E0,9.407324716E-3,-2.342580855E-1,-4.201007634E-2
3.424581250E0,8.412486874E-3,-2.132792324E-1,-3.775146976E-2
3.429543750E0,8.412486874E-3,-2.132792324E-1,-3.775146976E-2
3.434507813E0,6.126105785E-3,-1.903979629E-1,-3.384193406E-2
3.439470313E0,6.126105785E-3,-1.903979629E-1,-3.384193406E-2
3.444434375E0,4.590216093E-3,-1.690700501E-1,-3.024655581E-2
3.449396875E0,4.590216093E-3,-1.690700501E-1,-3.024655581E-2
3.454359375E0,6.702064537E-3,-1.490336657E-1,-2.700024284E-2
3.459323438E0,6.702064537E-3,-1.490336657E-1,-2.700024284E-2
3.464285938E0,8.779006079E-3,-1.209513173E-1,-2.370157093E-2
3.469250000E0,8.779006079E-3,-1.209513173E-1,-2.370157093E-2
3.474212500E0,7.661995478E-3,-8.826129884E-2,-1.994911395E-2
3.479176563E0,7.661995478E-3,-8.826129884E-2,-1.994911395E-2
3.484139063E0,1.160643995E-2,-6.445501000E-2,-1.563815027E-2
3.489101563E0,1.160643995E-2,-6.445501000E-2,-1.563815027E-2
3.494065625E0,2.022836544E-2,-4.588470608E-2,-1.062905509E-2
3.499028125E0,2.022836544E-2,-4.588470608E-2,-1.062905509E-2
3.503992188E0,3.197443113E-2,-3.764675185E-2,-4.415682983E-3
3.508954688E0,3.197443113E-2,-3.764675185E-2,-4.415682983E-3
3.513918750E0,4.543092102E-2,-8.447393775E-3,3.263765713E-3
3.518881250E0,4.543092102E-2,-8.447393775E-3,3.263765713E-3
3.523843750E0,5.188863724E-2,2.539454028E-2,1.050688233E-2
3.528807813E0,5.188863724E-2,2.539454028E-2,1.050688233E-2
3.533770313E0,4.743804783E-2,4.954989627E-2,1.617920212E-2
3.538734375E0,4.743804783E-2,4.954989627E-2,1.617920212E-2
3.543696875E0,4.237659276E-2,5.726425350E-2,1.804670505E-2
3.548660938E0,4.237659276E-2,5.726425350E-2,1.804670505E-2
3.553623438E0,3.865904361E-2,3.626793995E-2,1.661553420E-2
3.558585938E0,3.865904361E-2,3.626793995E-2,1.661553420E-2
3.563550000E0,3.574434295E-2,-1.396263397E-4,1.298524998E-2
3.568512500E0,3.574434295E-2,-1.396263397E-4,1.298524998E-2
3.573476563E0,3.169517964E-2,-2.274163999E-2,9.651671164E-3
3.578439063E0,3.169517964E-2,-2.274163999E-2,9.651671164E-3
3.583403125E0,2.864085324E-2,-3.345796093E-2,7.819075137E-3
3.588365625E0,2.864085324E-2,-3.345796093E-2,7.819075137E-3
3.593328125E0,2.448697016E-2,-5.979498103E-2,4.572762642E-3
3.598292188E0,2.448697016E-2,-5.979498103E-2,4.572762642E-3
3.603254688E0,2.014109865E-2,-1.047546640E-1,-2.338741207E-3
3.608218750E0,2.014109865E-2,-1.047546640E-1,-2.338741207E-3
3.613181250E0,1.658062823E-2,-1.491907388E-1,-9.686577134E-3
3.618143750E0,1.658062823E-2,-1.491907388E-1,-9.686577134E-3
3.623107813E0,1.359611470E-2,-1.722116321E-1,-1.270599663E-2
3.628070313E0,1.359611470E-2,-1.722116321E-1,-1.270599663E-2
3.633034375E0,1.202531811E-2,-1.732064784E-1,-1.115265395E-2
3.637996875E0,1.202531811E-2,-1.732064784E-1,-1.115265395E-2
3.642959375E0,1.137954649E-2,-1.604132056E-1,-6.492624991E-3
3.647923438E0,1.137954649E-2,-1.604132056E-1,-6.492624991E-3
3.652885938E0,1.001818944E-2,-1.620363742E-1,-2.827433404E-3
3.657850000E0,1.001818944E-2,-1.620363742E-1,-2.827433404E-3
3.662812500E0,7.278022822E-3,-1.339191198E-1,-2.426007763E-3
3.667776563E0,7.278022822E-3,-1.339191198E-1,-2.426007763E-3
3.672739063E0,4.520402756E-3,-9.349729121E-2,4.258603323E-3
3.677701563E0,4.520402756E-3,-9.349729121E-2,4.258603323E-3
3.682665625E0,2.024581889E-3,-2.476622164E-2,1.862266287E-2
3.687628125E0,2.024581889E-3,-2.476622164E-2,1.862266287E-2
3.692592188E0,-1.745329209E-4,4.286528751E-2,3.501130641E-2
3.697554688E0,-1.745329209E-4,4.286528751E-2,3.501130641E-2
3.702518750E0,-1.815142459E-3,1.021715775E-1,4.684463516E-2
3.707481250E0,-1.815142459E-3,1.021715775E-1,4.684463516E-2
3.712443750E0,-2.617993858E-3,1.338318437E-1,5.447172746E-2
3.717407813E0,-2.617993858E-3,1.338318437E-1,5.447172746E-2
3.722370313E0,-3.403391922E-3,1.497666985E-1,5.944591388E-2
3.727334375E0,-3.403391922E-3,1.497666985E-1,5.944591388E-2
3.732296875E0,-4.886921961E-3,1.372701526E-1,6.089453772E-2
3.737260938E0,-4.886921961E-3,1.372701526E-1,6.089453772E-2
3.742223438E0,-8.220500313E-3,1.143888757E-1,6.319837272E-2
3.747185938E0,-8.220500313E-3,1.143888757E-1,6.319837272E-2
3.752150000E0,-1.396263391E-2,1.017876044E-1,6.611306965E-2
3.757112500E0,-1.396263391E-2,1.017876044E-1,6.611306965E-2
3.762076563E0,-2.296853252E-2,5.714207888E-2,6.747443229E-2
3.767039063E0,-2.296853252E-2,5.714207888E-2,6.747443229E-2
3.772003125E0,-3.783873841E-2,5.253440887E-2,6.981316954E-2
3.776965625E0,-3.783873841E-2,5.253440887E-2,6.981316954E-2
3.781929688E0,-6.052801758E-2,4.527384043E-2,7.152359188E-2
3.786892188E0,-6.052801758E-2,4.527384043E-2,7.152359188E-2
3.791854688E0,-8.613199741E-2,4.686209187E-2,7.171557844E-2
3.796818750E0,-8.613199741E-2,4.686209187E-2,7.171557844E-2
3.801781250E0,-1.057145894E-1,4.213224724E-2,7.134906203E-2
3.806745313E0,-1.057145894E-1,4.213224724E-2,7.134906203E-2
3.811707813E0,-1.203753576E-1,6.304129213E-2,7.021459192E-2
3.816670313E0,-1.203753576E-1,6.304129213E-2,7.021459192E-2
3.821634375E0,-1.317374557E-1,9.168214351E-2,6.958627701E-2
3.826596875E0,-1.317374557E-1,9.168214351E-2,6.958627701E-2
3.831560938E0,-2.661627159E-2,2.206096239E-2,1.335176919E-2
3.836523438E0,-2.661627159E-2,2.206096239E-2,1.335176919E-2
3.841487500E0,-2.878047898E-2,2.588323317E-2,1.396263391E-2
3.846450000E0,-2.878047898E-2,2.588323317E-2,1.396263391E-2
3.851412500E0,-3.029891662E-2,2.815216035E-2,1.418952644E-2
3.856376563E0,-3.029891662E-2,2.815216035E-2,1.418952644E-2
3.861339063E0,-3.099704720E-2,2.994984947E-2,1.445132587E-2
3.866303125E0,-3.099704720E-2,2.994984947E-2,1.445132587E-2
3.871265625E0,-3.131120652E-2,3.094468825E-2,1.455604564E-2
3.876229688E0,-3.131120652E-2,3.094468825E-2,1.455604564E-2
3.881192188E0,-3.152064607E-2,3.145083413E-2,1.448623277E-2
3.886154688E0,-3.152064607E-2,3.145083413E-2,1.448623277E-2
3.891118750E0,-3.073524870E-2,3.141592816E-2,1.436406001E-2
3.896081250E0,-3.073524870E-2,3.141592816E-2,1.436406001E-2
3.901045313E0,-2.998475730E-2,3.152064607E-2,1.432915311E-2
3.906007813E0,-2.998475730E-2,3.152064607E-2,1.432915311E-2
3.910970313E0,-2.916445211E-2,3.249803185E-2,1.455604564E-2
3.915934375E0,-2.916445211E-2,3.249803185E-2,1.455604564E-2
3.920896875E0,-2.858849242E-2,3.401646763E-2,1.488765888E-2
3.925860938E0,-2.858849242E-2,3.401646763E-2,1.488765888E-2
3.930823438E0,-2.768092230E-2,3.536036983E-2,1.527163107E-2
3.935787500E0,-2.768092230E-2,3.536036983E-2,1.527163107E-2
3.940750000E0,-2.651155181E-2,3.827507049E-2,1.586504281E-2
3.945712500E0,-2.651155181E-2,3.827507049E-2,1.586504281E-2
3.950676563E0,-2.502802201E-2,3.935717419E-2,1.595230959E-2
3.955639063E0,-2.502802201E-2,3.935717419E-2,1.595230959E-2
3.960603125E0,-2.310816012E-2,3.721041977E-2,1.528908405E-2
3.965565625E0,-2.310816012E-2,3.721041977E-2,1.528908405E-2
3.970529688E0,-1.101477295E-1,1.724559814E-1,7.351326942E-2
3.975492188E0,-1.101477295E-1,1.724559814E-1,7.351326942E-2
3.980454688E0,-1.792453043E-2,2.829178795E-2,1.239183731E-2
3.985418750E0,-1.792453043E-2,2.829178795E-2,1.239183731E-2
3.990381250E0,-1.652826741E-2,2.640683204E-2,1.151917316E-2
3.995345313E0,-1.652826741E-2,2.640683204E-2,1.151917316E-2
4.000307813E0,-1.555088349E-2,1.740093343E-2,8.970992640E-3
4.005271875E0,-1.555088349E-2,1.740093343E-2,8.970992640E-3
4.010234375E0,-1.471312530E-2,5.654866807E-3,5.515240598E-3
4.015196875E0,-1.471312530E-2,5.654866807E-3,5.515240598E-3
4.020160938E0,-1.410226058E-2,-7.661995478E-3,2.024581889E-3
4.025123438E0,-1.410226058E-2,-7.661995478E-3,2.024581889E-3
4.030087500E0,-1.356120780E-2,-1.855284907E-2,-6.283185212E-4
4.035050000E0,-1.356120780E-2,-1.855284907E-2,-6.283185212E-4
4.040014063E0,-1.308996975E-2,-2.541199327E-2,-2.024581889E-3
4.044976563E0,-1.308996975E-2,-2.541199327E-2,-2.024581889E-3
4.049939063E0,-1.274090353E-2,-2.539454028E-2,-2.076941775E-3
4.054901563E0,-1.274090353E-2,-2.539454028E-2,-2.076941775E-3
4.059865625E0,-6.429792941E-2,-1.190838143E-1,-8.080874570E-3
4.064829688E0,-6.429792941E-2,-1.190838143E-1,-8.080874570E-3
4.069792188E0,-5.778785050E-2,-1.058193147E-1,-5.497787148E-3
4.074756250E0,-5.778785050E-2,-1.058193147E-1,-5.497787148E-3
4.079718750E0,-5.129522830E-2,-9.510298818E-2,-4.712388851E-3
4.084681250E0,-5.129522830E-2,-9.510298818E-2,-4.712388851E-3
4.089645313E0,-4.495968297E-2,-9.646435082E-2,-5.672320258E-3
4.094607813E0,-4.495968297E-2,-9.646435082E-2,-5.672320258E-3
4.099570313E0,-3.897320107E-2,-9.135053307E-2,-7.033676840E-3
4.104534375E0,-3.897320107E-2,-9.135053307E-2,-7.033676840E-3
4.109498438E0,-3.441789374E-2,-9.477137774E-2,-9.162978269E-3
4.114460938E0,-3.441789374E-2,-9.477137774E-2,-9.162978269E-3
4.119423438E0,-3.145083413E-2,-1.010022014E-1,-1.200786512E-2
4.124385938E0,-3.145083413E-2,-1.010022014E-1,-1.200786512E-2
4.129350000E0,-2.848377265E-2,-1.176526472E-1,-1.733111963E-2
4.134312500E0,-2.848377265E-2,-1.176526472E-1,-1.733111963E-2
4.139276563E0,-2.551671304E-2,-1.591914743E-1,-2.881538495E-2
4.144239063E0,-2.551671304E-2,-1.591914743E-1,-2.881538495E-2
4.149201563E0,-2.237512171E-2,-2.096664011E-1,-4.214970022E-2
4.154165625E0,-2.237512171E-2,-2.096664011E-1,-4.214970022E-2
4.159128125E0,-1.921607554E-2,-2.389355749E-1,-5.005604401E-2
4.164090625E0,-1.921607554E-2,-2.389355749E-1,-5.005604401E-2
4.169054688E0,-1.712168008E-2,-2.284636050E-1,-4.806636646E-2
4.174017188E0,-1.712168008E-2,-2.284636050E-1,-4.806636646E-2
4.178981250E0,-1.527163107E-2,-1.994387656E-1,-4.171336815E-2
4.183943750E0,-1.527163107E-2,-1.994387656E-1,-4.171336815E-2
4.188907813E0,-1.371828746E-2,-1.644274741E-1,-3.377212211E-2
4.193870313E0,-1.371828746E-2,-1.644274741E-1,-3.377212211E-2
4.198834375E0,-1.246165112E-2,-1.399055868E-1,-2.687807009E-2
4.203796875E0,-1.246165112E-2,-1.399055868E-1,-2.687807009E-2
4.208759375E0,-1.022762898E-2,-1.311614960E-1,-2.216568217E-2
4.213723438E0,-1.022762898E-2,-1.311614960E-1,-2.216568217E-2
4.218687500E0,-5.044001620E-3,-1.177748144E-1,-1.888446324E-2
4.223650000E0,-5.044001620E-3,-1.177748144E-1,-1.888446324E-2
4.228612500E0,3.054326167E-3,-8.374089748E-2,-1.085594762E-2
4.233575000E0,3.054326167E-3,-8.374089748E-2,-1.085594762E-2
4.238539063E0,1.279326342E-2,-6.059783325E-2,-4.677482415E-3
4.243501563E0,1.279326342E-2,-6.059783325E-2,-4.677482415E-3
4.248465625E0,2.343977243E-2,-6.892304868E-2,-5.375613924E-3
4.253428125E0,2.343977243E-2,-6.892304868E-2,-5.375613924E-3
4.258392188E0,3.541272879E-2,-9.440486133E-2,-9.075712413E-3
4.263354688E0,3.541272879E-2,-9.440486133E-2,-9.075712413E-3
4.268317188E0,4.693190381E-2,-1.105666086E-1,-1.183333248E-2
4.273281250E0,4.693190381E-2,-1.105666086E-1,-1.183333248E-2
4.278243750E0,5.604252219E-2,-1.040914357E-1,-1.256637089E-2
4.283207813E0,5.604252219E-2,-1.040914357E-1,-1.256637089E-2
4.288170313E0,6.279694289E-2,-9.779080003E-2,-1.200786512E-2
4.293134375E0,6.279694289E-2,-9.779080003E-2,-1.200786512E-2
4.298096875E0,6.735225767E-2,-8.836601675E-2,-1.120501384E-2
4.303059375E0,6.735225767E-2,-8.836601675E-2,-1.120501384E-2
4.308023438E0,7.103490084E-2,-7.941248268E-2,-1.014036313E-2
4.312985938E0,7.103490084E-2,-7.941248268E-2,-1.014036313E-2
4.317950000E0,7.382743061E-2,-7.112216949E-2,-8.726646192E-3
4.322912500E0,7.382743061E-2,-7.112216949E-2,-8.726646192E-3
4.327876563E0,7.599163800E-2,-6.640977412E-2,-8.098327555E-3
4.332839063E0,7.599163800E-2,-6.640977412E-2,-8.098327555E-3
4.337803125E0,7.684684545E-2,-5.237733200E-2,-5.794493016E-3
4.342765625E0,7.684684545E-2,-5.237733200E-2,-5.794493016E-3
4.347728125E0,7.679449022E-2,-1.928588748E-2,1.570796303E-4
4.352692188E0,7.679449022E-2,-1.928588748E-2,1.570796303E-4
4.357656250E0,7.319910824E-2,2.864085324E-2,9.546951391E-3
4.362617188E0,7.319910824E-2,2.864085324E-2,9.546951391E-3
4.367581250E0,6.806784123E-2,7.838273793E-2,2.028072625E-2
4.372543750E0,6.806784123E-2,7.838273793E-2,2.028072625E-2
4.377507813E0,6.260495633E-2,1.251226515E-1,3.117158078E-2
4.382470313E0,6.260495633E-2,1.251226515E-1,3.117158078E-2
4.387432813E0,5.735151842E-2,1.675167084E-1,4.026474431E-2
4.392396875E0,5.735151842E-2,1.675167084E-1,4.026474431E-2
4.397359375E0,5.021312088E-2,2.188293785E-1,5.035274848E-2
4.402323438E0,5.021312088E-2,2.188293785E-1,5.035274848E-2
4.407285938E0,4.314453900E-2,2.652376890E-1,6.101670861E-2
4.412250000E0,4.314453900E-2,2.652376890E-1,6.101670861E-2
4.417212500E0,3.724532574E-2,2.988527119E-1,6.960373372E-2
4.422176563E0,3.724532574E-2,2.988527119E-1,6.960373372E-2
4.427139063E0,3.274237737E-2,3.201631904E-1,7.515387982E-2
4.432101563E0,3.274237737E-2,3.201631904E-1,7.515387982E-2
4.437065625E0,2.911209129E-2,3.168645203E-1,7.440338284E-2
4.442028125E0,2.911209129E-2,3.168645203E-1,7.440338284E-2
4.446992188E0,2.605776489E-2,2.985211015E-1,7.038912922E-2
4.451954688E0,2.605776489E-2,2.985211015E-1,7.038912922E-2
4.456917188E0,2.464404888E-2,2.657612860E-1,6.532767415E-2
4.461881250E0,2.464404888E-2,2.657612860E-1,6.532767415E-2
4.466843750E0,2.605776489E-2,2.303311080E-1,6.045820564E-2
4.471807813E0,2.605776489E-2,2.303311080E-1,6.045820564E-2
4.476770313E0,3.190461919E-2,1.855983138E-1,5.825908855E-2
4.481734375E0,3.190461919E-2,1.855983138E-1,5.825908855E-2
4.486696875E0,4.063126445E-2,1.271123290E-1,5.632177368E-2
4.491660938E0,4.063126445E-2,1.271123290E-1,5.632177368E-2
4.496623438E0,5.003859103E-2,8.986700326E-2,5.227261037E-2
4.501585938E0,5.003859103E-2,8.986700326E-2,5.227261037E-2
4.506550000E0,5.640904233E-2,6.775368005E-2,4.752531648E-2
4.511512500E0,5.640904233E-2,6.775368005E-2,4.752531648E-2
4.516476563E0,5.487314984E-2,6.721262634E-2,4.358087108E-2
4.521439063E0,5.487314984E-2,6.721262634E-2,4.358087108E-2
4.526403125E0,4.427900165E-2,5.647885427E-2,3.970624134E-2
4.531365625E0,4.427900165E-2,5.647885427E-2,3.970624134E-2
4.536328125E0,3.317870945E-2,2.698278986E-2,3.612831607E-2
4.541292188E0,3.317870945E-2,2.698278986E-2,3.612831607E-2
4.546254688E0,2.511528693E-2,2.228785492E-2,3.338814899E-2
4.551218750E0,2.511528693E-2,2.228785492E-2,3.338814899E-2
4.556181250E0,1.994911395E-2,3.434807807E-2,3.277728334E-2
4.561145313E0,1.994911395E-2,3.434807807E-2,3.277728334E-2
4.566107813E0,1.012290944E-3,5.956808850E-2,3.499384969E-2
4.571070313E0,1.012290944E-3,5.956808850E-2,3.499384969E-2
4.576034375E0,-3.153809905E-2,9.354964644E-2,3.984586522E-2
4.580996875E0,-3.153809905E-2,9.354964644E-2,3.984586522E-2
4.585960938E0,-6.890559942E-2,1.409353316E-1,4.776966199E-2
4.590923438E0,-6.890559942E-2,1.409353316E-1,4.776966199E-2
4.595887500E0,-9.683086723E-2,1.845162064E-1,5.681046844E-2
4.600850000E0,-9.683086723E-2,1.845162064E-1,5.681046844E-2
4.605812500E0,-1.001120880E-1,2.264564633E-1,6.581636518E-2
4.610776563E0,-1.001120880E-1,2.264564633E-1,6.581636518E-2
4.615739063E0,-9.491100162E-2,2.546784580E-1,7.309439033E-2
4.620703125E0,-9.491100162E-2,2.546784580E-1,7.309439033E-2
4.625665625E0,-8.417722583E-2,2.699675262E-1,7.869689912E-2
4.630629688E0,-8.417722583E-2,2.699675262E-1,7.869689912E-2
4.635592188E0,-7.007496804E-2,2.802998722E-1,8.408996463E-2
4.640554688E0,-7.007496804E-2,2.802998722E-1,8.408996463E-2
4.645518750E0,-5.731661245E-2,2.749417126E-1,8.703956753E-2
4.650481250E0,-5.731661245E-2,2.749417126E-1,8.703956753E-2
4.655445313E0,-5.146975815E-2,2.140122652E-1,8.251916617E-2
4.660407813E0,-5.146975815E-2,2.140122652E-1,8.251916617E-2
4.665371875E0,-3.441789374E-2,1.446179748E-1,7.361798733E-2
4.670334375E0,-3.441789374E-2,1.446179748E-1,7.361798733E-2
4.675296875E0,-4.939281847E-3,1.042485163E-1,6.061528623E-2
4.680260938E0,-4.939281847E-3,1.042485163E-1,6.061528623E-2
4.685223438E0,2.707005665E-2,4.590215907E-2,4.742059484E-2
4.690187500E0,2.707005665E-2,4.590215907E-2,4.742059484E-2
4.695150000E0,5.019566789E-2,8.307767101E-3,3.885103017E-2
4.700112500E0,5.019566789E-2,8.307767101E-3,3.885103017E-2
4.705076563E0,6.065019220E-2,-4.136430472E-2,3.007202223E-2
4.710039063E0,6.065019220E-2,-4.136430472E-2,3.007202223E-2
4.715003125E0,6.761405617E-2,-1.444783509E-1,9.843656793E-3
4.719965625E0,6.761405617E-2,-1.444783509E-1,9.843656793E-3
4.724929688E0,6.736970693E-2,-2.384817898E-1,-1.630137488E-2
4.729892188E0,6.736970693E-2,-2.384817898E-1,-1.630137488E-2
4.734854688E0,6.604325771E-2,-3.123441339E-1,-3.698352724E-2
4.739818750E0,6.604325771E-2,-3.123441339E-1,-3.698352724E-2
4.744781250E0,6.419321150E-2,-3.326772153E-1,-4.588470608E-2
4.749745313E0,6.419321150E-2,-3.326772153E-1,-4.588470608E-2
4.754707813E0,5.977752805E-2,-2.924473584E-1,-4.033455998E-2
4.759671875E0,5.977752805E-2,-2.924473584E-1,-4.033455998E-2
4.764634375E0,5.300565064E-2,-2.323382348E-1,-2.925171889E-2
4.769596875E0,5.300565064E-2,-2.323382348E-1,-2.925171889E-2
4.774560938E0,4.623377323E-2,-1.761386245E-1,-1.850049011E-2
4.779523438E0,4.623377323E-2,-1.761386245E-1,-1.850049011E-2
4.784487500E0,4.052654654E-2,-1.467647403E-1,-1.274090353E-2
4.789450000E0,4.052654654E-2,-1.467647403E-1,-1.274090353E-2
4.794414063E0,3.602359444E-2,-1.396612525E-1,-1.148426626E-2
4.799376563E0,3.602359444E-2,-1.396612525E-1,-1.148426626E-2
4.804339063E0,3.235840425E-2,-1.200262904E-1,-7.417649496E-3
4.809303125E0,3.235840425E-2,-1.200262904E-1,-7.417649496E-3
4.814265625E0,2.893755957E-2,-9.738937020E-2,-4.014257283E-4
4.819229688E0,2.893755957E-2,-9.738937020E-2,-4.014257283E-4
4.824192188E0,2.614503168E-2,-8.342673630E-2,5.078908056E-3
4.829156250E0,2.614503168E-2,-8.342673630E-2,5.078908056E-3
4.834118750E0,2.412045002E-2,-1.014385372E-1,2.705260413E-3
4.839081250E0,2.412045002E-2,-1.014385372E-1,2.705260413E-3
4.844043750E0,2.373647690E-2,-1.336224079E-1,-2.583087189E-3
4.849007813E0,2.373647690E-2,-1.336224079E-1,-2.583087189E-3
4.853971875E0,3.043854237E-2,-1.713738739E-1,-6.911503617E-3
4.858934375E0,3.043854237E-2,-1.713738739E-1,-6.911503617E-3
4.863896875E0,4.651302472E-2,-2.012539208E-1,-8.831365965E-3
4.868860938E0,4.651302472E-2,-2.012539208E-1,-8.831365965E-3
4.873823438E0,7.295475900E-2,-2.188991904E-1,-8.133234456E-3
4.878785938E0,7.295475900E-2,-2.188991904E-1,-8.133234456E-3
4.883750000E0,1.035329327E-1,-2.134363204E-1,-8.587019518E-3
4.888714063E0,1.035329327E-1,-2.134363204E-1,-8.587019518E-3
4.893676563E0,1.267632693E-1,-2.105216086E-1,-1.232202444E-2
4.898639063E0,1.267632693E-1,-2.105216086E-1,-1.232202444E-2
4.903603125E0,1.402197480E-1,-2.232974172E-1,-1.754055917E-2
4.908565625E0,1.402197480E-1,-2.232974172E-1,-1.754055917E-2
4.913529688E0,1.427155733E-1,-2.146929502E-1,-2.286381274E-2
4.918492188E0,1.427155733E-1,-2.146929502E-1,-2.286381274E-2
4.923456250E0,1.349139512E-1,-2.131046951E-1,-2.727949619E-2
4.928418750E0,1.349139512E-1,-2.131046951E-1,-2.727949619E-2
4.933381250E0,1.242674440E-1,-2.153212726E-1,-3.164282069E-2
4.938345313E0,1.242674440E-1,-2.153212726E-1,-3.164282069E-2
4.943307813E0,1.103397161E-1,-2.043082416E-1,-3.759439290E-2
4.948271875E0,1.103397161E-1,-2.043082416E-1,-3.759439290E-2
4.953234375E0,9.407324344E-2,-1.955816001E-1,-4.560545459E-2
4.958198438E0,9.407324344E-2,-1.955816001E-1,-4.560545459E-2
4.963160938E0,7.908086479E-2,-2.172760367E-1,-5.302310362E-2
4.968123438E0,7.908086479E-2,-2.172760367E-1,-5.302310362E-2
4.973087500E0,7.014477998E-2,-2.364223003E-1,-5.848598480E-2
4.978050000E0,7.014477998E-2,-2.364223003E-1,-5.848598480E-2
4.983014063E0,5.525712296E-2,-2.622880936E-1,-6.085963175E-2
4.987976563E0,5.525712296E-2,-2.622880936E-1,-6.085963175E-2
4.992939063E0,2.960078418E-2,-2.848726511E-1,-5.984733999E-2
4.997903125E0,2.960078418E-2,-2.848726511E-1,-5.984733999E-2
5.002867188E0,-3.316125658E-4,-2.853438854E-1,-5.822418258E-2
5.007829688E0,-3.316125658E-4,-2.853438854E-1,-5.822418258E-2
5.012792188E0,-2.228785492E-2,-2.807013094E-1,-5.639158934E-2
5.017756250E0,-2.228785492E-2,-2.807013094E-1,-5.639158934E-2
5.022718750E0,-3.166027367E-2,-2.870368361E-1,-5.396557972E-2
5.027681250E0,-3.166027367E-2,-2.870368361E-1,-5.396557972E-2
5.032645313E0,-3.083996847E-2,-3.226415515E-1,-5.112069473E-2
5.037607813E0,-3.083996847E-2,-3.226415515E-1,-5.112069473E-2
5.042571875E0,-2.052507177E-2,-3.688055277E-1,-4.811872914E-2
5.047534375E0,-2.052507177E-2,-3.688055277E-1,-4.811872914E-2
5.052496875E0,-8.691739291E-3,-4.457396269E-1,-4.660028964E-2
5.057460938E0,-8.691739291E-3,-4.457396269E-1,-4.660028964E-2
5.062423438E0,-1.308996929E-3,-4.981867671E-1,-4.621632025E-2
5.067387500E0,-1.308996929E-3,-4.981867671E-1,-4.621632025E-2
5.072350000E0,-1.396263397E-4,-5.052030087E-1,-4.848524556E-2
5.077314063E0,-1.396263397E-4,-5.052030087E-1,-4.848524556E-2
5.082276563E0,1.010545623E-2,-5.186594725E-1,-5.075417459E-2
5.087240625E0,1.010545623E-2,-5.186594725E-1,-5.075417459E-2
5.092203125E0,2.890265174E-2,-4.996353984E-1,-5.157447979E-2
5.097165625E0,2.890265174E-2,-4.996353984E-1,-5.157447979E-2
5.102129688E0,5.024803057E-2,-4.453207552E-1,-4.968952388E-2
5.107092188E0,5.024803057E-2,-4.453207552E-1,-4.968952388E-2
5.112056250E0,6.066764519E-2,-4.032059610E-1,-4.583234712E-2
5.117018750E0,6.066764519E-2,-4.032059610E-1,-4.583234712E-2
5.121982813E0,5.766567960E-2,-3.874979913E-1,-4.106759652E-2
5.126945313E0,5.766567960E-2,-3.874979913E-1,-4.106759652E-2
5.131907813E0,4.972442985E-2,-4.061206579E-1,-3.860668465E-2
5.136871875E0,4.972442985E-2,-4.061206579E-1,-3.860668465E-2
5.141834375E0,4.372049868E-2,-4.337666631E-1,-3.830997646E-2
5.146798438E0,4.372049868E-2,-4.337666631E-1,-3.830997646E-2
5.151760938E0,3.811798990E-2,-4.510803521E-1,-3.764675185E-2
5.156725000E0,3.811798990E-2,-4.510803521E-1,-3.764675185E-2
5.161687500E0,3.338814899E-2,-4.258254170E-1,-3.417354822E-2
5.166650000E0,3.338814899E-2,-4.258254170E-1,-3.417354822E-2
5.171614063E0,2.738421597E-2,-4.020540416E-1,-2.951351739E-2
5.176576563E0,2.738421597E-2,-4.020540416E-1,-2.951351739E-2
5.181540625E0,1.640609466E-2,-3.919835091E-1,-2.432988957E-2
5.186503125E0,1.640609466E-2,-3.919835091E-1,-2.432988957E-2
5.191467188E0,5.602506921E-3,-4.000992775E-1,-1.980948634E-2
5.196429688E0,5.602506921E-3,-4.000992775E-1,-1.980948634E-2
5.201392188E0,8.726646192E-4,-3.761708140E-1,-1.654572040E-2
5.206356250E0,8.726646192E-4,-3.761708140E-1,-1.654572040E-2
5.211318750E0,-1.361356815E-3,-3.709871769E-1,-1.343903504E-2
5.216282813E0,-1.361356815E-3,-3.709871769E-1,-1.343903504E-2
5.221245313E0,-6.283185445E-3,-3.639883995E-1,-7.801621687E-3
5.226209375E0,-6.283185445E-3,-3.639883995E-1,-7.801621687E-3
5.231171875E0,-1.164134592E-2,-3.810577393E-1,-1.902408898E-3
5.236134375E0,-1.164134592E-2,-3.810577393E-1,-1.902408898E-3
5.241096875E0,-1.127482671E-2,-4.073598385E-1,2.129301662E-3
5.246060938E0,-1.127482671E-2,-4.073598385E-1,2.129301662E-3
5.251025000E0,-1.022762898E-2,-3.960850239E-1,3.508111695E-3
5.255987500E0,-1.022762898E-2,-3.960850239E-1,3.508111695E-3
5.260950000E0,-1.022762898E-2,-4.273613095E-1,5.288347602E-3
5.265914063E0,-1.022762898E-2,-4.273613095E-1,5.288347602E-3
5.270876563E0,-1.197295822E-2,-4.425805807E-1,6.091198884E-3
5.275840625E0,-1.197295822E-2,-4.425805807E-1,6.091198884E-3
5.280803125E0,-1.356120780E-2,-4.271344244E-1,6.195918657E-3
5.285767188E0,-1.356120780E-2,-4.271344244E-1,6.195918657E-3
5.290729688E0,-1.427679323E-2,-4.175874889E-1,7.714355364E-3
5.295693750E0,-1.427679323E-2,-4.175874889E-1,7.714355364E-3
5.300656250E0,-1.233947743E-2,-3.728197813E-1,1.172861271E-2
5.305618750E0,-1.233947743E-2,-3.728197813E-1,1.172861271E-2
5.310582813E0,-8.133234456E-3,-2.902133465E-1,1.811651699E-2
5.315545313E0,-8.133234456E-3,-2.902133465E-1,1.811651699E-2
5.320509375E0,-4.084070213E-3,-2.124589235E-1,2.815216035E-2
5.325471875E0,-4.084070213E-3,-2.124589235E-1,2.815216035E-2
5.330435938E0,-3.298672382E-3,-1.183856800E-1,3.942698613E-2
5.335398438E0,-3.298672382E-3,-1.183856800E-1,3.942698613E-2
5.340360938E0,1.029744279E-3,-5.323254317E-2,4.747295380E-2
5.345325000E0,1.029744279E-3,-5.323254317E-2,4.747295380E-2
5.350287500E0,1.305506285E-2,-3.577925032E-3,5.017821491E-2
5.355250000E0,1.305506285E-2,-3.577925032E-3,5.017821491E-2
5.360214063E0,2.124065720E-2,1.195550524E-2,4.820599407E-2
5.365176563E0,2.124065720E-2,1.195550524E-2,4.820599407E-2
5.370140625E0,1.691224054E-2,8.831365965E-3,4.471533373E-2
5.375103125E0,1.691224054E-2,8.831365965E-3,4.471533373E-2
5.380065625E0,9.337511845E-3,1.797689125E-3,4.173082113E-2
5.385029688E0,9.337511845E-3,1.797689125E-3,4.173082113E-2
5.389992188E0,3.944444004E-3,-3.141592722E-3,4.106759652E-2
5.394954688E0,3.944444004E-3,-3.141592722E-3,4.106759652E-2
5.399918750E0,2.478367416E-3,-3.019419499E-3,4.059635848E-2
5.404881250E0,2.478367416E-3,-3.019419499E-3,4.059635848E-2
5.409845313E0,-4.520402756E-3,-2.462659590E-2,3.958406672E-2
5.414807813E0,-4.520402756E-3,-2.462659590E-2,3.958406672E-2
5.419771875E0,-2.370157093E-2,-8.141960949E-2,3.768165782E-2
5.424734375E0,-2.370157093E-2,-8.141960949E-2,3.768165782E-2
5.429698438E0,-4.340633750E-2,-1.581442803E-1,3.433062509E-2
5.434660938E0,-4.340633750E-2,-1.581442803E-1,3.433062509E-2
5.439623438E0,-5.035274848E-2,-1.731017530E-1,3.008947708E-2
5.444587500E0,-5.035274848E-2,-1.731017530E-1,3.008947708E-2
5.449551563E0,-4.583234712E-2,-1.409876943E-1,2.630211227E-2
5.454512500E0,-4.583234712E-2,-1.409876943E-1,2.630211227E-2
5.459476563E0,-4.066617042E-2,-1.382300705E-1,2.101376466E-2
5.464439063E0,-4.066617042E-2,-1.382300705E-1,2.101376466E-2
5.469403125E0,-3.436553106E-2,-1.714611501E-1,1.480039209E-2
5.474365625E0,-3.436553106E-2,-1.714611501E-1,1.480039209E-2
5.479328125E0,-2.738421597E-2,-2.216044515E-1,8.534659632E-3
5.484292188E0,-2.738421597E-2,-2.216044515E-1,8.534659632E-3
5.489256250E0,-2.195624262E-2,-2.494250089E-1,4.136430100E-3
5.494218750E0,-2.195624262E-2,-2.494250089E-1,4.136430100E-3
5.499181250E0,-1.853539608E-2,-2.756747603E-1,1.658062800E-3
5.504145313E0,-1.853539608E-2,-2.756747603E-1,1.658062800E-3
5.509109375E0,-1.600466855E-2,-2.973517478E-1,-1.169370604E-3
5.514071875E0,-1.600466855E-2,-2.973517478E-1,-1.169370604E-3
5.519034375E0,-1.392772701E-2,-3.523819745E-1,-5.916666240E-3
5.523998438E0,-1.392772701E-2,-3.523819745E-1,-5.916666240E-3
5.528960938E0,-1.139700040E-2,-4.350233078E-1,-1.221730467E-2
5.533923438E0,-1.139700040E-2,-4.350233078E-1,-1.221730467E-2
5.538887500E0,-8.831365965E-3,-4.890412688E-1,-1.757546514E-2
5.543850000E0,-8.831365965E-3,-4.890412688E-1,-1.757546514E-2
5.548814063E0,-6.614797749E-3,-5.307371616E-1,-2.038544603E-2
5.553776563E0,-6.614797749E-3,-5.307371616E-1,-2.038544603E-2
5.558739063E0,-5.445427261E-3,-5.563585758E-1,-2.015855350E-2
5.563703125E0,-5.445427261E-3,-5.563585758E-1,-2.015855350E-2
5.568665625E0,-6.597344764E-3,-5.768662095E-1,-1.827359758E-2
5.573629688E0,-6.597344764E-3,-5.768662095E-1,-1.827359758E-2
5.578592188E0,-9.704031050E-3,-5.769534707E-1,-1.713913307E-2
5.583556250E0,-9.704031050E-3,-5.769534707E-1,-1.713913307E-2
5.588518750E0,-1.329940930E-2,-5.766567588E-1,-1.579522900E-2
5.593482813E0,-1.329940930E-2,-5.766567588E-1,-1.579522900E-2
5.598445313E0,-1.651081443E-2,-5.797285438E-1,-1.537635084E-2
5.603407813E0,-1.651081443E-2,-5.797285438E-1,-1.537635084E-2
5.608371875E0,-1.939060725E-2,-5.665163994E-1,-1.464331243E-2
5.613334375E0,-1.939060725E-2,-5.665163994E-1,-1.464331243E-2
5.618296875E0,-2.197369561E-2,-5.836380720E-1,-1.417207345E-2
5.623260938E0,-2.197369561E-2,-5.836380720E-1,-1.417207345E-2
5.628225000E0,-2.843141370E-2,-6.188414097E-1,-1.333431527E-2
5.633187500E0,-2.843141370E-2,-6.188414097E-1,-1.333431527E-2
5.638150000E0,-3.673918173E-2,-6.868568659E-1,-1.338667516E-2
5.643114063E0,-3.673918173E-2,-6.868568659E-1,-1.338667516E-2
5.648076563E0,-4.358087108E-2,-7.516086102E-1,-1.511455141E-2
5.653039063E0,-4.358087108E-2,-7.516086102E-1,-1.511455141E-2
5.658003125E0,-4.872959107E-2,-7.852759957E-1,-1.769763790E-2
5.662965625E0,-4.872959107E-2,-7.852759957E-1,-1.769763790E-2
5.667929688E0,-5.307546258E-2,-8.101643920E-1,-1.914626174E-2
5.672892188E0,-5.307546258E-2,-8.101643920E-1,-1.914626174E-2
5.677856250E0,-5.157447979E-2,-8.030434251E-1,-1.865756884E-2
5.682818750E0,-5.157447979E-2,-8.030434251E-1,-1.865756884E-2
5.687781250E0,-4.588470608E-2,-8.090474010E-1,-1.844812930E-2
5.692745313E0,-4.588470608E-2,-8.090474010E-1,-1.844812930E-2
5.697707813E0,-3.946189582E-2,-8.363966942E-1,-2.010619268E-2
5.702671875E0,-3.946189582E-2,-8.363966942E-1,-2.010619268E-2
5.707634375E0,-3.289945796E-2,-8.513890505E-1,-2.445206232E-2
5.712598438E0,-3.289945796E-2,-8.513890505E-1,-2.445206232E-2
5.717560938E0,-2.499311417E-2,-8.921948671E-1,-2.874557301E-2
5.722523438E0,-2.499311417E-2,-8.921948671E-1,-2.874557301E-2
5.727487500E0,-1.769763790E-2,-9.304001331E-1,-3.333579004E-2
5.732450000E0,-1.769763790E-2,-9.304001331E-1,-3.333579004E-2
5.737412500E0,-1.265363675E-2,-9.362120628E-1,-3.417354822E-2
5.742376563E0,-1.265363675E-2,-9.362120628E-1,-3.417354822E-2
5.747340625E0,-3.804817796E-3,-9.002757072E-1,-2.993239649E-2
5.752303125E0,-3.804817796E-3,-9.002757072E-1,-2.993239649E-2
5.757265625E0,6.928957067E-3,-8.559269309E-1,-2.232276089E-2
5.762229688E0,6.928957067E-3,-8.559269309E-1,-2.232276089E-2
5.767192188E0,1.537635084E-2,-8.414581418E-1,-1.521927118E-2
5.772156250E0,1.537635084E-2,-8.414581418E-1,-1.521927118E-2
5.777118750E0,1.902408898E-2,-8.447393775E-1,-1.256637089E-2
5.782081250E0,1.902408898E-2,-8.447393775E-1,-1.256637089E-2
5.787045313E0,1.548107062E-2,-8.393288255E-1,-5.689773243E-3
5.792007813E0,1.548107062E-2,-8.393288255E-1,-5.689773243E-3
5.796971875E0,8.953538723E-3,-8.490677476E-1,5.078908056E-3
5.801934375E0,8.953538723E-3,-8.490677476E-1,5.078908056E-3
5.806898438E0,4.136430100E-3,-8.631002307E-1,1.274090353E-2
5.811860938E0,4.136430100E-3,-8.631002307E-1,1.274090353E-2
5.816823438E0,3.996803891E-3,-8.848644495E-1,1.315978263E-2
5.821787500E0,3.996803891E-3,-8.848644495E-1,1.315978263E-2
5.826750000E0,-1.675516134E-3,-9.245358109E-1,8.621926419E-3
5.831714063E0,-1.675516134E-3,-9.245358109E-1,8.621926419E-3
5.836676563E0,-1.774999872E-2,-1.005815744E0,3.036872949E-3
5.841640625E0,-1.774999872E-2,-1.005815744E0,3.036872949E-3
5.846603125E0,-3.331833705E-2,-1.074110508E0,-3.490658492E-5
5.851565625E0,-3.331833705E-2,-1.074110508E0,-3.490658492E-5
5.856529688E0,-4.227187485E-2,-1.119227290E0,-8.901178953E-4
5.861492188E0,-4.227187485E-2,-1.119227290E0,-8.901178953E-4
5.866456250E0,-4.075343907E-2,-1.125964284E0,-2.617993741E-4
5.871418750E0,-4.075343907E-2,-1.125964284E0,-2.617993741E-4
5.876382813E0,-3.371975943E-2,-1.111390710E0,5.934119690E-4
5.881345313E0,-3.371975943E-2,-1.111390710E0,5.934119690E-4
5.886307813E0,-2.420771681E-2,-1.106451511E0,1.972222002E-3
5.891271875E0,-2.420771681E-2,-1.106451511E0,1.972222002E-3
5.896234375E0,-1.645845547E-2,-1.035817981E0,5.393067375E-3
5.901198438E0,-1.645845547E-2,-1.035817981E0,5.393067375E-3
5.906160938E0,-1.066396199E-2,-1.018748641E0,1.073377486E-2
5.911125000E0,-1.066396199E-2,-1.018748641E0,1.073377486E-2
5.916087500E0,-6.405358203E-3,-9.721832871E-1,1.790707745E-2
5.921050000E0,-6.405358203E-3,-9.721832871E-1,1.790707745E-2
5.926014063E0,4.293509759E-3,-9.322850704E-1,2.364921197E-2
5.930976563E0,4.293509759E-3,-9.322850704E-1,2.364921197E-2
5.935940625E0,1.637118869E-2,-8.872904778E-1,2.740166895E-2
5.940903125E0,1.637118869E-2,-8.872904778E-1,2.740166895E-2
5.945867188E0,2.139773592E-2,-8.713730574E-1,2.698278986E-2
5.950829688E0,2.139773592E-2,-8.713730574E-1,2.698278986E-2
5.955792188E0,1.877974346E-2,-8.597142696E-1,2.621484548E-2
5.960756250E0,1.877974346E-2,-8.597142696E-1,2.621484548E-2
5.965718750E0,1.235693134E-2,-8.645837307E-1,2.652900480E-2
5.970681250E0,1.235693134E-2,-8.645837307E-1,2.652900480E-2
5.975645313E0,6.998770405E-3,-8.636412621E-1,2.687807009E-2
5.980607813E0,6.998770405E-3,-8.636412621E-1,2.687807009E-2
5.985571875E0,5.375613924E-3,-8.705353141E-1,2.834414691E-2
5.990534375E0,5.375613924E-3,-8.705353141E-1,2.834414691E-2
5.995498438E0,4.677482415E-3,-8.857895136E-1,2.981022373E-2
6.000460938E0,4.677482415E-3,-8.857895136E-1,2.981022373E-2
6.005423438E0,-5.061454722E-4,-9.255132079E-1,3.197443113E-2
6.010387500E0,-5.061454722E-4,-9.255132079E-1,3.197443113E-2
6.015351563E0,-7.627088577E-3,-9.484293461E-1,3.494149074E-2
6.020314063E0,-7.627088577E-3,-9.484293461E-1,3.494149074E-2
6.025276563E0,-1.230457146E-2,-9.495289326E-1,3.892084211E-2
6.030240625E0,-1.230457146E-2,-9.495289326E-1,3.892084211E-2
6.035203125E0,-1.310742274E-2,-9.974905849E-1,3.865904361E-2
6.040167188E0,-1.310742274E-2,-9.974905849E-1,3.865904361E-2
6.045129688E0,-1.213003788E-2,-1.041891694E0,3.497639671E-2
6.050092188E0,-1.213003788E-2,-1.041891694E0,3.497639671E-2
6.055056250E0,-1.158898603E-2,-1.079329014E0,2.928662486E-2
6.060018750E0,-1.158898603E-2,-1.079329014E0,2.928662486E-2
6.064982813E0,-1.087340154E-2,-1.116330028E0,2.316051908E-2
6.069945313E0,-1.087340154E-2,-1.116330028E0,2.316051908E-2
6.074909375E0,-9.442231618E-3,-1.175060391E0,1.768018492E-2
6.079871875E0,-9.442231618E-3,-1.175060391E0,1.768018492E-2
6.084835938E0,-8.395033889E-3,-1.185671926E0,1.438151300E-2
6.089798438E0,-8.395033889E-3,-1.185671926E0,1.438151300E-2
6.094760938E0,-6.161012221E-3,-1.235361457E0,4.188789986E-3
6.099725000E0,-6.161012221E-3,-1.235361457E0,4.188789986E-3
6.104687500E0,-2.129301662E-3,-1.314791441E0,-1.371828746E-2
6.109651563E0,-2.129301662E-3,-1.314791441E0,-1.371828746E-2
6.114614063E0,2.164208330E-3,-1.353607535E0,-3.258529678E-2
6.119578125E0,2.164208330E-3,-1.353607535E0,-3.258529678E-2
6.124540625E0,5.881759338E-3,-1.368128657E0,-4.443608224E-2
6.129503125E0,5.881759338E-3,-1.368128657E0,-4.443608224E-2
6.134467188E0,8.203047328E-3,-1.372806191E0,-4.595451802E-2
6.139429688E0,8.203047328E-3,-1.372806191E0,-4.595451802E-2
6.144392188E0,1.176351868E-2,-1.338213801E0,-4.232423380E-2
6.149356250E0,1.176351868E-2,-1.338213801E0,-4.232423380E-2
6.154318750E0,1.823868975E-2,-1.306186914E0,-3.920009360E-2
6.159282813E0,1.823868975E-2,-1.306186914E0,-3.920009360E-2
6.164245313E0,2.450442314E-2,-1.276062608E0,-3.970624134E-2
6.169209375E0,2.450442314E-2,-1.276062608E0,-3.970624134E-2
6.174171875E0,3.012438305E-2,-1.284003854E0,-4.424409568E-2
6.179134375E0,3.012438305E-2,-1.284003854E0,-4.424409568E-2
6.184098438E0,6.440265104E-3,-2.506292760E-1,-9.756390937E-3
6.189060938E0,6.440265104E-3,-2.506292760E-1,-9.756390937E-3
6.194025000E0,7.452555932E-3,-2.718873918E-1,-1.146681327E-2
6.198987500E0,7.452555932E-3,-2.718873918E-1,-1.146681327E-2
6.203951563E0,8.342674002E-3,-2.894105017E-1,-1.291543618E-2
6.208914063E0,8.342674002E-3,-2.894105017E-1,-1.291543618E-2
6.213878125E0,9.337511845E-3,-3.135483861E-1,-1.466076542E-2
6.218840625E0,9.337511845E-3,-3.135483861E-1,-1.466076542E-2
6.223803125E0,5.269148946E-2,-1.750181317E0,-8.658578247E-2
6.228767188E0,5.269148946E-2,-1.750181317E0,-8.658578247E-2
6.233729688E0,5.304055661E-2,-1.730476499E0,-9.070476145E-2
6.238693750E0,5.304055661E-2,-1.730476499E0,-9.070476145E-2
6.243656250E0,5.297074094E-2,-1.684539437E0,-9.016370773E-2
6.248618750E0,5.297074094E-2,-1.684539437E0,-9.016370773E-2
6.253582813E0,5.244714394E-2,-1.642738819E0,-8.653342724E-2
6.258543750E0,5.244714394E-2,-1.642738819E0,-8.653342724E-2
6.263509375E0,5.358160660E-2,-1.607169032E0,-8.066911995E-2
6.268471875E0,5.358160660E-2,-1.607169032E0,-8.066911995E-2
6.273435938E0,5.611233413E-2,-1.588982701E0,-7.398450375E-2
6.278398438E0,5.611233413E-2,-1.588982701E0,-7.398450375E-2
6.283360938E0,5.998696759E-2,-1.577480912E0,-6.885323673E-2
6.288325000E0,5.998696759E-2,-1.577480912E0,-6.885323673E-2
6.293287500E0,6.085963175E-2,-1.555524707E0,-6.359979510E-2
6.298251563E0,6.085963175E-2,-1.555524707E0,-6.359979510E-2
6.303214063E0,5.794493109E-2,-1.517965198E0,-5.928883329E-2
6.308178125E0,5.794493109E-2,-1.517965198E0,-5.928883329E-2
6.313140625E0,5.438445881E-2,-1.493356109E0,-5.532693863E-2
6.318103125E0,5.438445881E-2,-1.493356109E0,-5.532693863E-2
6.323067188E0,4.951499030E-2,-1.443387270E0,-5.070181563E-2
6.328029688E0,4.951499030E-2,-1.443387270E0,-5.070181563E-2
6.332993750E0,4.673991725E-2,-1.421256542E0,-4.673991725E-2
6.337956250E0,4.673991725E-2,-1.421256542E0,-4.673991725E-2
6.342920313E0,4.286528751E-2,-1.366400838E0,-4.269075394E-2
6.347882813E0,4.286528751E-2,-1.366400838E0,-4.269075394E-2
6.352846875E0,3.366740048E-2,-1.336695313E0,-3.825761750E-2
6.357809375E0,3.366740048E-2,-1.336695313E0,-3.825761750E-2
6.362771875E0,1.857030392E-2,-1.362037539E0,-3.501130641E-2
6.367735938E0,1.857030392E-2,-1.362037539E0,-3.501130641E-2
6.372698438E0,3.804817796E-3,-1.427574635E0,-3.277728334E-2
6.377660938E0,3.804817796E-3,-1.427574635E0,-3.277728334E-2
6.382625000E0,-7.661995478E-3,-1.458152771E0,-3.131120652E-2
6.387587500E0,-7.661995478E-3,-1.458152771E0,-3.131120652E-2
6.392551563E0,-1.621410809E-2,-1.492378712E0,-2.890265174E-2
6.397514063E0,-1.621410809E-2,-1.492378712E0,-2.890265174E-2
6.402478125E0,-1.877974346E-2,-1.486566782E0,-2.371902391E-2
6.407440625E0,-1.877974346E-2,-1.486566782E0,-2.371902391E-2
6.412403125E0,-1.610938832E-2,-1.410836935E0,-1.431170013E-2
6.417367188E0,-1.610938832E-2,-1.410836935E0,-1.431170013E-2
6.422329688E0,-1.120501384E-2,-1.328282833E0,-2.181661548E-3
6.427293750E0,-1.120501384E-2,-1.328282833E0,-2.181661548E-3
6.432256250E0,-6.614797749E-3,-1.228397608E0,1.010545623E-2
6.437220313E0,-6.614797749E-3,-1.228397608E0,1.010545623E-2
6.442182813E0,-2.565633971E-3,-1.143504858E0,2.035053819E-2
6.447145313E0,-2.565633971E-3,-1.143504858E0,2.035053819E-2
6.452109375E0,-9.773843922E-4,-1.081283808E0,2.410299703E-2
6.457071875E0,-9.773843922E-4,-1.081283808E0,2.410299703E-2
6.462035938E0,5.724680144E-3,-1.012639999E0,2.401573025E-2
6.466998438E0,5.724680144E-3,-1.012639999E0,2.401573025E-2
6.471962500E0,1.565560326E-2,-8.957553506E-1,2.576106042E-2
6.476925000E0,1.565560326E-2,-8.957553506E-1,2.576106042E-2
6.481887500E0,2.703515068E-2,-8.055217862E-1,2.958333120E-2
6.486851563E0,2.703515068E-2,-8.055217862E-1,2.958333120E-2
6.491814063E0,3.413863853E-2,-7.333350182E-1,3.474950418E-2
6.496778125E0,3.413863853E-2,-7.333350182E-1,3.474950418E-2
6.501740625E0,3.286454827E-2,-7.243639827E-1,4.031710699E-2
6.506704688E0,3.286454827E-2,-7.243639827E-1,4.031710699E-2
6.511667188E0,2.593559213E-2,-7.827976346E-1,4.476769641E-2
6.516629688E0,2.593559213E-2,-7.827976346E-1,4.476769641E-2
6.521593750E0,1.694714651E-2,-8.579340577E-1,4.663519561E-2
6.526556250E0,1.694714651E-2,-8.579340577E-1,4.663519561E-2
6.531520313E0,1.153662615E-2,-8.973261118E-1,4.965461791E-2
6.536482813E0,1.153662615E-2,-8.973261118E-1,4.965461791E-2
6.541445313E0,6.475171540E-3,-9.024399519E-1,5.169665068E-2
6.546407813E0,6.475171540E-3,-9.024399519E-1,5.169665068E-2
6.551371875E0,-1.563815027E-2,-1.056692123E0,4.794419557E-2
6.556335938E0,-1.563815027E-2,-1.056692123E0,4.794419557E-2
6.561296875E0,-5.312782153E-2,-1.342454910E0,3.757693991E-2
6.566262500E0,-5.312782153E-2,-1.342454910E0,3.757693991E-2
6.571225000E0,-8.854055405E-2,-1.590047359E0,2.352703735E-2
6.576189063E0,-8.854055405E-2,-1.590047359E0,2.352703735E-2
6.581151563E0,-1.091005281E-1,-1.741105556E0,1.125737373E-2
6.586114063E0,-1.091005281E-1,-1.741105556E0,1.125737373E-2
6.591078125E0,-1.134638563E-1,-1.682322860E0,5.881759338E-3
6.596039063E0,-1.134638563E-1,-1.682322860E0,5.881759338E-3
6.601004688E0,-1.071108580E-1,-1.570447206E0,4.886921961E-4
6.605967188E0,-1.071108580E-1,-1.570447206E0,4.886921961E-4
6.610929688E0,-9.190903604E-2,-1.447558641E0,-9.267698042E-3
6.615893750E0,-9.190903604E-2,-1.447558641E0,-9.267698042E-3
6.620856250E0,-7.279768586E-2,-1.315541863E0,-2.249729447E-2
6.625818750E0,-7.279768586E-2,-1.315541863E0,-2.249729447E-2
6.630782813E0,-5.510004610E-2,-1.218798280E0,-3.810053691E-2
6.635746875E0,-5.510004610E-2,-1.218798280E0,-3.810053691E-2
6.640709375E0,-4.368559271E-2,-1.127552509E0,-5.298819765E-2
6.645671875E0,-4.368559271E-2,-1.127552509E0,-5.298819765E-2
6.650635938E0,-3.394665569E-2,-1.021942616E0,-6.302383542E-2
6.655598438E0,-3.394665569E-2,-1.021942616E0,-6.302383542E-2
6.660562500E0,-1.206022501E-2,-8.654738665E-1,-6.911503524E-2
6.665525000E0,-1.206022501E-2,-8.654738665E-1,-6.911503524E-2
6.670487500E0,1.891936921E-2,-6.298195124E-1,-6.761405617E-2
6.675451563E0,1.891936921E-2,-6.298195124E-1,-6.761405617E-2
6.680414063E0,4.998622835E-2,-3.904825151E-1,-5.988224596E-2
6.685378125E0,4.998622835E-2,-3.904825151E-1,-5.988224596E-2
6.690340625E0,6.876597553E-2,-2.309245169E-1,-5.038765445E-2
6.695304688E0,6.876597553E-2,-2.309245169E-1,-5.038765445E-2
6.700267188E0,7.417649031E-2,-1.804670393E-1,-4.239404574E-2
6.705231250E0,7.417649031E-2,-1.804670393E-1,-4.239404574E-2
6.710193750E0,6.934192777E-2,-1.662949771E-1,-3.775146976E-2
6.715157813E0,6.934192777E-2,-1.662949771E-1,-3.775146976E-2
6.720120313E0,5.892231688E-2,-2.080606967E-1,-3.117158078E-2
6.725082813E0,5.892231688E-2,-2.080606967E-1,-3.117158078E-2
6.730045313E0,4.539601505E-2,-2.845933735E-1,-2.288126573E-2
6.735009375E0,4.539601505E-2,-2.845933735E-1,-2.288126573E-2
6.739971875E0,3.438298777E-2,-3.339512944E-1,-1.523672417E-2
6.744935938E0,3.438298777E-2,-3.339512944E-1,-1.523672417E-2
6.749898438E0,3.153809905E-2,-3.519805372E-1,-1.099557430E-2
6.754862500E0,3.153809905E-2,-3.519805372E-1,-1.099557430E-2
6.759825000E0,1.692969352E-2,-4.834212959E-1,-1.267109066E-2
6.764787500E0,1.692969352E-2,-4.834212959E-1,-1.267109066E-2
6.769751563E0,-1.324704941E-2,-7.193549275E-1,-1.855284907E-2
6.774714063E0,-1.324704941E-2,-7.193549275E-1,-1.855284907E-2
6.779678125E0,-4.529129341E-2,-9.459684491E-1,-2.516764775E-2
6.784640625E0,-4.529129341E-2,-9.459684491E-1,-2.516764775E-2
6.789603125E0,-6.026621908E-2,-1.061038017E0,-2.979277074E-2
6.794567188E0,-6.026621908E-2,-1.061038017E0,-2.979277074E-2
6.799531250E0,-6.445501000E-2,-1.026358366E0,-2.904227935E-2
6.804493750E0,-6.445501000E-2,-1.026358366E0,-2.904227935E-2
6.809456250E0,-6.078981608E-2,-9.426523447E-1,-2.970550396E-2
6.814420313E0,-6.078981608E-2,-9.426523447E-1,-2.970550396E-2
6.819382813E0,-5.105087906E-2,-7.992735505E-1,-3.310889751E-2
6.824345313E0,-5.105087906E-2,-7.992735505E-1,-3.310889751E-2
6.829309375E0,-4.070107639E-2,-6.629981995E-1,-3.951425478E-2
6.834271875E0,-4.070107639E-2,-6.629981995E-1,-3.951425478E-2
6.839235938E0,-3.155555204E-2,-5.434780717E-1,-4.653047770E-2
6.844198438E0,-3.155555204E-2,-5.434780717E-1,-4.653047770E-2
6.849160938E0,-2.633701824E-2,-4.745201170E-1,-5.338962004E-2
6.854125000E0,-2.633701824E-2,-4.745201170E-1,-5.338962004E-2
6.859087500E0,-1.731366664E-2,-3.670601845E-1,-5.525712296E-2
6.864051563E0,-1.731366664E-2,-3.670601845E-1,-5.525712296E-2
6.869014063E0,2.338741207E-3,-1.628741324E-1,-4.958480224E-2
6.873978125E0,2.338741207E-3,-1.628741324E-1,-4.958480224E-2
6.878940625E0,2.813470736E-2,1.073028445E-1,-3.888593614E-2
6.883903125E0,2.813470736E-2,1.073028445E-1,-3.888593614E-2
6.888867188E0,4.663519561E-2,3.230429888E-1,-2.815216035E-2
6.893829688E0,4.663519561E-2,3.230429888E-1,-2.815216035E-2
6.898792188E0,5.328490213E-2,4.448669851E-1,-2.019345947E-2
6.903756250E0,5.328490213E-2,4.448669851E-1,-2.019345947E-2
6.908718750E0,5.078908056E-2,4.601735175E-1,-1.661553420E-2
6.913682813E0,5.078908056E-2,4.601735175E-1,-1.661553420E-2
6.918645313E0,8.639379404E-3,8.431685716E-2,-2.129301662E-3
6.923609375E0,8.639379404E-3,8.431685716E-2,-2.129301662E-3
6.928571875E0,7.382742595E-3,8.384561539E-2,3.490658492E-5
6.933535938E0,7.382742595E-3,8.384561539E-2,3.490658492E-5
6.938498438E0,5.811946467E-3,7.929030806E-2,3.176499158E-3
6.943460938E0,5.811946467E-3,7.929030806E-2,3.176499158E-3
6.948425000E0,4.520402756E-3,8.672541380E-2,6.911503617E-3
6.953387500E0,4.520402756E-3,8.672541380E-2,6.911503617E-3
6.958351563E0,3.961897455E-3,8.969247341E-2,1.007054932E-2
6.963314063E0,3.961897455E-3,8.969247341E-2,1.007054932E-2
6.968278125E0,6.492624991E-3,4.061206579E-1,6.433283538E-2
6.973240625E0,6.492624991E-3,4.061206579E-1,6.433283538E-2
6.978203125E0,-1.750565320E-2,2.045874894E-1,6.586872786E-2
6.983167188E0,-1.750565320E-2,2.045874894E-1,6.586872786E-2
6.988129688E0,-4.286528751E-2,-3.454006463E-2,6.197664142E-2
6.993093750E0,-4.286528751E-2,-3.454006463E-2,6.197664142E-2
6.998056250E0,-6.508332491E-2,-1.989500821E-1,5.588544160E-2
7.003018750E0,-6.508332491E-2,-1.989500821E-1,5.588544160E-2
7.007982813E0,-1.521927118E-2,-5.394812673E-2,9.337511845E-3
7.012945313E0,-1.521927118E-2,-5.394812673E-2,9.337511845E-3
7.017909375E0,-1.698205434E-2,-5.375614017E-2,8.726646192E-3
7.022871875E0,-1.698205434E-2,-5.375614017E-2,8.726646192E-3
7.027835938E0,-1.747074537E-2,-4.738568887E-2,8.639379404E-3
7.032798438E0,-1.747074537E-2,-4.738568887E-2,8.639379404E-3
7.037760938E0,-1.691224054E-2,-2.647664398E-2,7.819075137E-3
7.042725000E0,-1.691224054E-2,-2.647664398E-2,7.819075137E-3
7.047687500E0,-8.246680349E-2,2.078687213E-2,2.989749052E-2
7.052651563E0,-8.246680349E-2,2.078687213E-2,2.989749052E-2
7.057614063E0,-1.366592757E-2,3.757693991E-2,3.001966281E-3
7.062578125E0,-1.366592757E-2,3.757693991E-2,3.001966281E-3
7.067540625E0,-6.763150543E-2,3.273539543E-1,6.684611086E-3
7.072503125E0,-6.763150543E-2,3.273539543E-1,6.684611086E-3
7.077467188E0,-5.880014226E-2,4.036073983E-1,3.281218931E-3
7.082429688E0,-5.880014226E-2,4.036073983E-1,3.281218931E-3
7.087393750E0,-3.881612420E-2,6.121742129E-1,6.998770405E-3
7.092356250E0,-3.881612420E-2,6.121742129E-1,6.998770405E-3
7.097320313E0,-1.260127686E-2,8.200255036E-1,1.199041214E-2
7.102282813E0,-1.260127686E-2,8.200255036E-1,1.199041214E-2
7.107245313E0,4.625122529E-3,9.660048485E-1,1.642354764E-2
7.112209375E0,4.625122529E-3,9.660048485E-1,1.642354764E-2
7.117171875E0,1.120501384E-2,1.026951671E0,1.837831736E-2
7.122135938E0,1.120501384E-2,1.026951671E0,1.837831736E-2
7.127098438E0,1.041961554E-2,9.889908433E-1,1.802925020E-2
7.132060938E0,1.041961554E-2,9.889908433E-1,1.802925020E-2
7.137025000E0,5.288347602E-3,8.810945749E-1,1.640609466E-2
7.141987500E0,5.288347602E-3,8.810945749E-1,1.640609466E-2
7.146951563E0,-2.007128671E-3,7.708072066E-1,1.584758982E-2
7.151914063E0,-2.007128671E-3,7.708072066E-1,1.584758982E-2
7.156878125E0,-6.352998316E-3,6.848322749E-1,1.687733456E-2
7.161840625E0,-6.352998316E-3,6.848322749E-1,1.687733456E-2
7.166804688E0,-6.736970972E-3,6.591933966E-1,1.991420612E-2
7.171767188E0,-6.736970972E-3,6.591933966E-1,1.991420612E-2
7.176729688E0,-1.377064735E-2,6.088231802E-1,2.268928103E-2
7.181692188E0,-1.377064735E-2,6.088231802E-1,2.268928103E-2
7.186656250E0,-2.703515068E-2,5.370029211E-1,2.439970337E-2
7.191620313E0,-2.703515068E-2,5.370029211E-1,2.439970337E-2
7.196582813E0,-4.120722413E-2,5.022359490E-1,2.392846346E-2
7.201545313E0,-4.120722413E-2,5.022359490E-1,2.392846346E-2
7.206509375E0,-4.637339711E-2,4.681321979E-1,2.167698927E-2
7.211471875E0,-4.637339711E-2,4.681321979E-1,2.167698927E-2
7.216434375E0,-4.242895544E-2,5.294281840E-1,2.062979154E-2
7.221398438E0,-4.242895544E-2,5.294281840E-1,2.062979154E-2
7.226362500E0,-3.591887653E-2,5.952794552E-1,2.085668407E-2
7.231325000E0,-3.591887653E-2,5.952794552E-1,2.085668407E-2
7.236287500E0,-3.090978041E-2,6.734527349E-1,1.769763790E-2
7.241251563E0,-3.090978041E-2,6.734527349E-1,1.769763790E-2
7.246214063E0,-2.446951531E-2,6.851987839E-1,6.806783844E-3
7.251178125E0,-2.446951531E-2,6.851987839E-1,6.806783844E-3
7.256140625E0,-1.994911395E-2,6.318091750E-1,-1.005309634E-2
7.261104688E0,-1.994911395E-2,6.318091750E-1,-1.005309634E-2
7.266067188E0,-1.541125681E-2,5.590987802E-1,-2.967059799E-2
7.271029688E0,-1.541125681E-2,5.590987802E-1,-2.967059799E-2
7.275993750E0,-6.161012221E-3,6.089279056E-1,-4.228932783E-2
7.280956250E0,-6.161012221E-3,6.089279056E-1,-4.228932783E-2
7.285920313E0,9.494591504E-3,6.723706126E-1,-4.790928960E-2
7.290882813E0,9.494591504E-3,6.723706126E-1,-4.790928960E-2
7.295846875E0,2.066469751E-2,7.479434013E-1,-4.483750835E-2
7.300809375E0,2.066469751E-2,7.479434013E-1,-4.483750835E-2
7.305771875E0,2.738421597E-2,7.997796535E-1,-3.881612420E-2
7.310735938E0,2.738421597E-2,7.997796535E-1,-3.881612420E-2
7.315698438E0,2.991494350E-2,8.139342666E-1,-3.178244457E-2
7.320662500E0,2.991494350E-2,8.139342666E-1,-3.178244457E-2
7.325625000E0,2.696533687E-2,8.621926308E-1,-2.508038096E-2
7.330589063E0,2.696533687E-2,8.621926308E-1,-2.508038096E-2
7.335551563E0,2.178170905E-2,8.341451883E-1,-2.125811018E-2
7.340514063E0,2.178170905E-2,8.341451883E-1,-2.125811018E-2
7.345476563E0,1.391027402E-2,8.181231022E-1,-1.453859266E-2
7.350440625E0,1.391027402E-2,8.181231022E-1,-1.453859266E-2
7.355403125E0,6.213372108E-3,7.987848520E-1,-5.201081280E-3
7.360367188E0,6.213372108E-3,7.987848520E-1,-5.201081280E-3
7.365329688E0,6.806784077E-4,7.919082642E-1,5.113814492E-3
7.370293750E0,6.806784077E-4,7.919082642E-1,5.113814492E-3
7.375256250E0,-2.617993858E-3,7.693585753E-1,1.048942842E-2
7.380220313E0,-2.617993858E-3,7.693585753E-1,1.048942842E-2
7.385182813E0,-1.417207345E-2,6.970844865E-1,1.153662615E-2
7.390146875E0,-1.417207345E-2,6.970844865E-1,1.153662615E-2
7.395109375E0,-3.328342736E-2,5.859070420E-1,9.546951391E-3
7.400073438E0,-3.328342736E-2,5.859070420E-1,9.546951391E-3
7.405035938E0,-4.963716492E-2,4.211654067E-1,5.724680144E-3
7.409998438E0,-4.963716492E-2,4.211654067E-1,5.724680144E-3
7.414962500E0,-5.719443783E-2,4.182681441E-1,6.126105785E-3
7.419925000E0,-5.719443783E-2,4.182681441E-1,6.126105785E-3
7.424889063E0,-5.295328796E-2,4.981344342E-1,8.360126987E-3
7.429851563E0,-5.295328796E-2,4.981344342E-1,8.360126987E-3
7.434815625E0,-4.405210912E-2,5.653470755E-1,1.055924222E-2
7.439778125E0,-4.405210912E-2,5.653470755E-1,1.055924222E-2
7.444740625E0,-3.740240633E-2,6.557027698E-1,1.305506285E-2
7.449704688E0,-3.740240633E-2,6.557027698E-1,1.305506285E-2
7.454667188E0,-3.469714522E-2,7.311882377E-1,1.546361670E-2
7.459631250E0,-3.469714522E-2,7.311882377E-1,1.546361670E-2
7.464593750E0,-2.951351739E-2,7.757290602E-1,1.692969352E-2
7.469557813E0,-2.951351739E-2,7.757290602E-1,1.692969352E-2
7.474520313E0,-1.473057922E-2,8.658578396E-1,1.843067631E-2
7.479482813E0,-1.473057922E-2,8.658578396E-1,1.843067631E-2
7.484446875E0,2.792526735E-3,9.770352840E-1,1.909390278E-2
7.489409375E0,2.792526735E-3,9.770352840E-1,1.909390278E-2
7.494373438E0,7.819075137E-3,1.003948331E0,1.851794310E-2
7.499335938E0,7.819075137E-3,1.003948331E0,1.851794310E-2
7.504298438E0,3.228859045E-3,9.528625011E-1,1.755801216E-2
7.509262500E0,3.228859045E-3,9.528625011E-1,1.755801216E-2
7.514225000E0,-7.155850180E-4,8.499578834E-1,1.548107062E-2
7.519189063E0,-7.155850180E-4,8.499578834E-1,1.548107062E-2
7.524151563E0,-5.986479111E-3,7.902152538E-1,1.389282104E-2
7.529114063E0,-5.986479111E-3,7.902152538E-1,1.389282104E-2
7.534078125E0,-7.574729156E-3,7.333350182E-1,1.249655709E-2
7.539040625E0,-7.574729156E-3,7.333350182E-1,1.249655709E-2
7.544004688E0,-1.439896598E-2,6.742904782E-1,1.167625282E-2
7.548967188E0,-1.439896598E-2,6.742904782E-1,1.167625282E-2
7.553931250E0,-2.963569015E-2,5.548401475E-1,1.036725566E-2
7.558893750E0,-2.963569015E-2,5.548401475E-1,1.036725566E-2
7.563856250E0,-4.869468510E-2,4.508185387E-1,1.007054932E-2
7.568820313E0,-4.869468510E-2,4.508185387E-1,1.007054932E-2
7.573784375E0,-6.059783325E-2,4.096811414E-1,1.038470864E-2
7.578746875E0,-6.059783325E-2,4.096811414E-1,1.038470864E-2
7.583709375E0,-6.171484292E-2,4.442560971E-1,1.115265395E-2
7.588673438E0,-6.171484292E-2,4.442560971E-1,1.115265395E-2
7.593635938E0,-5.764822662E-2,4.808905721E-1,1.263618376E-2
7.598598438E0,-5.764822662E-2,4.808905721E-1,1.263618376E-2
7.603562500E0,-5.174901336E-2,4.887969196E-1,1.315978263E-2
7.608525000E0,-5.174901336E-2,4.887969196E-1,1.315978263E-2
7.613489063E0,-4.684463516E-2,5.222897530E-1,1.275835652E-2
7.618451563E0,-4.684463516E-2,5.222897530E-1,1.275835652E-2
7.623415625E0,-4.201007634E-2,5.592558384E-1,1.195550524E-2
7.628378125E0,-4.201007634E-2,5.592558384E-1,1.195550524E-2
7.633340625E0,-3.886848316E-2,5.523269176E-1,1.115265395E-2
7.638304688E0,-3.886848316E-2,5.523269176E-1,1.115265395E-2
7.643267188E0,-2.994984947E-2,5.355018973E-1,9.180432186E-3
7.648231250E0,-2.994984947E-2,5.355018973E-1,9.180432186E-3
7.653193750E0,-1.476548519E-2,5.813516974E-1,5.462880712E-3
7.658157813E0,-1.476548519E-2,5.813516974E-1,5.462880712E-3
7.663120313E0,5.393067375E-3,6.190159321E-1,-2.094395168E-4
7.668082813E0,5.393067375E-3,6.190159321E-1,-2.094395168E-4
7.673046875E0,2.049016580E-2,6.834185719E-1,-4.310963210E-3
7.678009375E0,2.049016580E-2,6.834185719E-1,-4.310963210E-3
7.682973438E0,3.015928902E-2,6.886720061E-1,-7.295476273E-3
7.687935938E0,3.015928902E-2,6.886720061E-1,-7.295476273E-3
7.692898438E0,2.911209129E-2,6.933844090E-1,-6.056292448E-3
7.697862500E0,2.911209129E-2,6.933844090E-1,-6.056292448E-3
7.702825000E0,2.204350755E-2,6.803642511E-1,-1.850049011E-3
7.707789063E0,2.204350755E-2,6.803642511E-1,-1.850049011E-3
7.712751563E0,1.628392190E-2,6.308317780E-1,8.028514567E-4
7.717715625E0,1.628392190E-2,6.308317780E-1,8.028514567E-4
7.722678125E0,8.569566533E-3,6.007074118E-1,3.647738136E-3
7.727640625E0,8.569566533E-3,6.007074118E-1,3.647738136E-3
7.732603125E0,1.745329238E-3,5.692042112E-1,1.204277202E-2
7.737567188E0,1.745329238E-3,5.692042112E-1,1.204277202E-2
7.742529688E0,-1.204277156E-3,5.927836299E-1,2.408554405E-2
7.747493750E0,-1.204277156E-3,5.927836299E-1,2.408554405E-2
7.752456250E0,-1.347394194E-2,5.554335713E-1,3.248057887E-2
7.757418750E0,-1.347394194E-2,5.554335713E-1,3.248057887E-2
7.762384375E0,-3.895574808E-2,4.585503638E-1,3.691371530E-2
7.767346875E0,-3.895574808E-2,4.585503638E-1,3.691371530E-2
7.772309375E0,-6.820746511E-2,2.890090644E-1,3.487167880E-2
7.777273438E0,-6.820746511E-2,2.890090644E-1,3.487167880E-2
7.782235938E0,-8.311257511E-2,1.900314540E-1,3.043854237E-2
7.787200000E0,-8.311257511E-2,1.900314540E-1,3.043854237E-2
7.792162500E0,-8.751080930E-2,1.836609989E-1,2.597049996E-2
7.797125000E0,-8.751080930E-2,1.836609989E-1,2.597049996E-2
7.802089063E0,-8.152432740E-2,1.989500821E-1,2.267182618E-2
7.807051563E0,-8.152432740E-2,1.989500821E-1,2.267182618E-2
7.812015625E0,-6.836454570E-2,2.796890140E-1,2.211332135E-2
7.816978125E0,-6.836454570E-2,2.796890140E-1,2.211332135E-2
7.821942188E0,-5.400048569E-2,3.246312439E-1,1.670280099E-2
7.826904688E0,-5.400048569E-2,3.246312439E-1,1.670280099E-2
7.831867188E0,-4.429645464E-2,3.568150997E-1,8.674286306E-3
7.836831250E0,-4.429645464E-2,3.568150997E-1,8.674286306E-3
7.841793750E0,-3.940953314E-2,3.127804399E-1,-1.535889693E-3
7.846756250E0,-3.940953314E-2,3.127804399E-1,-1.535889693E-3
7.851720313E0,-2.485348843E-2,3.675663471E-1,-6.265731994E-3
7.856684375E0,-2.485348843E-2,3.675663471E-1,-6.265731994E-3
7.861646875E0,3.071779385E-3,5.167222023E-1,-5.393067375E-3
7.866610938E0,3.071779385E-3,5.167222023E-1,-5.393067375E-3
7.871573438E0,3.408627957E-2,6.879040599E-1,-2.094395168E-4
7.876535938E0,3.408627957E-2,6.879040599E-1,-2.094395168E-4
7.881498438E0,4.923573881E-2,7.886095643E-1,5.235987715E-3
7.886462500E0,4.923573881E-2,7.886095643E-1,5.235987715E-3
7.891425000E0,5.183627829E-2,7.821692824E-1,8.080874570E-3
7.896389063E0,5.183627829E-2,7.821692824E-1,8.080874570E-3
7.901351563E0,4.705407470E-2,7.197214365E-1,8.639379404E-3
7.906315625E0,4.705407470E-2,7.197214365E-1,8.639379404E-3
7.911278125E0,3.815289587E-2,6.803642511E-1,1.731366664E-2
7.916242188E0,3.815289587E-2,6.803642511E-1,1.731366664E-2
7.921204688E0,2.537708730E-2,6.820397377E-1,3.396410868E-2
7.926167188E0,2.537708730E-2,6.820397377E-1,3.396410868E-2
7.931131250E0,1.392772701E-2,6.933844090E-1,5.272639543E-2
7.936093750E0,1.392772701E-2,6.933844090E-1,5.272639543E-2
7.941057813E0,7.470009383E-3,7.220601439E-1,6.848672032E-2
7.946020313E0,7.470009383E-3,7.220601439E-1,6.848672032E-2
7.950982813E0,-1.431170036E-3,7.190582156E-1,7.766715437E-2
7.955946875E0,-1.431170036E-3,7.190582156E-1,7.766715437E-2
7.960909375E0,-2.333505265E-2,6.481978297E-1,8.045967668E-2
7.965873438E0,-2.333505265E-2,6.481978297E-1,8.045967668E-2
7.970835938E0,-5.106833205E-2,5.377534032E-1,8.086110651E-2
7.975800000E0,-5.106833205E-2,5.377534032E-1,8.086110651E-2
7.980762500E0,-7.396705449E-2,4.180587232E-1,7.644542307E-2
7.985726563E0,-7.396705449E-2,4.180587232E-1,7.644542307E-2
7.990689063E0,-8.937831223E-2,3.402344882E-1,7.016223669E-2
7.995653125E0,-8.937831223E-2,3.402344882E-1,7.016223669E-2
8.000615625E0,-9.424778074E-2,2.731789351E-1,6.213372201E-2
8.005578125E0,-9.424778074E-2,2.731789351E-1,6.213372201E-2
8.010542188E0,-8.744099736E-2,2.407681644E-1,5.480333790E-2
8.015504688E0,-8.744099736E-2,2.407681644E-1,5.480333790E-2
8.020468750E0,-7.672467083E-2,2.378709167E-1,4.967207089E-2
8.025431250E0,-7.672467083E-2,2.378709167E-1,4.967207089E-2
8.030395313E0,-6.588617712E-2,2.626197040E-1,4.246386141E-2
8.035357813E0,-6.588617712E-2,2.626197040E-1,4.246386141E-2
8.040320313E0,-5.389576778E-2,2.940181792E-1,3.056071512E-2
8.045282813E0,-5.389576778E-2,2.940181792E-1,3.056071512E-2
8.050246875E0,-4.307472706E-2,2.637890577E-1,1.338667516E-2
8.055210938E0,-4.307472706E-2,2.637890577E-1,1.338667516E-2
8.060173438E0,-3.789109737E-2,2.244144380E-1,-3.455751808E-3
8.065135938E0,-3.789109737E-2,2.244144380E-1,-3.455751808E-3
8.070098438E0,-2.385865152E-2,2.238733768E-1,-1.363102160E-2
8.075062500E0,-2.385865152E-2,2.238733768E-1,-1.363102160E-2
8.080026563E0,1.553343027E-3,2.718175650E-1,-1.761037298E-2
8.084989063E0,1.553343027E-3,2.718175650E-1,-1.761037298E-2
8.089951563E0,2.701769583E-2,3.583509922E-1,-1.680752076E-2
8.094915625E0,2.701769583E-2,3.583509922E-1,-1.680752076E-2
8.099878125E0,4.612905160E-2,4.362275898E-1,-1.464331243E-2
8.104842188E0,4.612905160E-2,4.362275898E-1,-1.464331243E-2
8.109804688E0,5.742133036E-2,4.743106663E-1,-1.129228063E-2
8.114767188E0,5.742133036E-2,4.743106663E-1,-1.129228063E-2
8.119731250E0,6.099925563E-2,4.482180178E-1,-8.779006079E-3
8.124693750E0,6.099925563E-2,4.482180178E-1,-8.779006079E-3
8.129657813E0,5.513495207E-2,3.810926378E-1,-8.220500313E-3
8.134620313E0,5.513495207E-2,3.810926378E-1,-8.220500313E-3
8.139582813E0,4.457570985E-2,3.401122987E-1,-3.525565146E-3
8.144546875E0,4.457570985E-2,3.401122987E-1,-3.525565146E-3
8.149509375E0,3.293436393E-2,3.159569502E-1,4.520402756E-3
8.154473438E0,3.293436393E-2,3.159569502E-1,4.520402756E-3
8.159435938E0,2.323033288E-2,3.344574571E-1,1.528908405E-2
8.164400000E0,2.323033288E-2,3.344574571E-1,1.528908405E-2
8.169362500E0,1.787217148E-2,3.716853261E-1,2.734931000E-2
8.174325000E0,1.787217148E-2,3.716853261E-1,2.734931000E-2
8.179289063E0,7.033676840E-3,3.399377763E-1,3.534291685E-2
8.184251563E0,7.033676840E-3,3.399377763E-1,3.534291685E-2
8.189215625E0,-1.673770696E-2,2.386737764E-1,3.766420484E-2
8.194178125E0,-1.673770696E-2,2.386737764E-1,3.766420484E-2
8.199140625E0,-4.366813600E-2,1.269727051E-1,3.659955412E-2
8.204104688E0,-4.366813600E-2,1.269727051E-1,3.659955412E-2
8.209067188E0,-6.002187356E-2,9.576621652E-2,3.485422581E-2
8.214031250E0,-6.002187356E-2,9.576621652E-2,3.485422581E-2
8.218993750E0,-6.719517708E-2,7.417649031E-2,3.206169978E-2
8.223957813E0,-6.719517708E-2,7.417649031E-2,3.206169978E-2
8.228920313E0,-6.644468755E-2,8.902924508E-2,2.956587821E-2
8.233882813E0,-6.644468755E-2,8.902924508E-2,2.956587821E-2
8.238846875E0,-5.667084083E-2,1.099731922E-1,2.663372457E-2
8.243809375E0,-5.667084083E-2,1.099731922E-1,2.663372457E-2
8.248773438E0,-4.506440088E-2,1.387536824E-1,2.481858246E-2
8.253735938E0,-4.506440088E-2,1.387536824E-1,2.481858246E-2
8.258698438E0,-3.497639671E-2,1.214400083E-1,1.949532703E-2
8.263662500E0,-3.497639671E-2,1.214400083E-1,1.949532703E-2
8.268625000E0,-2.816961333E-2,8.977973461E-2,1.076868176E-2
8.273589063E0,-2.816961333E-2,8.977973461E-2,1.076868176E-2
8.278551563E0,-2.188642882E-2,4.736823589E-2,-1.221730490E-3
8.283515625E0,-2.188642882E-2,4.736823589E-2,-1.221730490E-3
8.288478125E0,-5.654866807E-3,4.061381146E-2,-1.494001877E-2
8.293440625E0,-5.654866807E-3,4.061381146E-2,-1.494001877E-2
8.298404688E0,2.120575123E-2,1.096590385E-1,-2.446951531E-2
8.303367188E0,2.120575123E-2,1.096590385E-1,-2.446951531E-2
8.308331250E0,5.009094998E-2,1.894729435E-1,-3.132865950E-2
8.313293750E0,5.009094998E-2,1.894729435E-1,-3.132865950E-2
8.318257813E0,6.312856078E-2,2.183406949E-1,-3.412118554E-2
8.323220313E0,6.312856078E-2,2.183406949E-1,-3.412118554E-2
8.328182813E0,6.773623079E-2,2.337170392E-1,-3.518583626E-2
8.333146875E0,6.773623079E-2,2.337170392E-1,-3.518583626E-2
8.338109375E0,6.801547855E-2,2.241875380E-1,-3.553490341E-2
8.343073438E0,6.801547855E-2,2.241875380E-1,-3.553490341E-2
8.348035938E0,6.695082784E-2,2.171538621E-1,-3.375466913E-2
8.352998438E0,6.695082784E-2,2.171538621E-1,-3.375466913E-2
8.357962500E0,6.447245926E-2,2.158099562E-1,-2.935643867E-2
8.362925000E0,6.447245926E-2,2.158099562E-1,-2.935643867E-2
8.367889063E0,5.934119597E-2,2.178170830E-1,-2.453932911E-2
8.372851563E0,5.934119597E-2,2.178170830E-1,-2.453932911E-2
8.377815625E0,4.864232615E-2,1.887748092E-1,-2.164208330E-2
8.382778125E0,4.864232615E-2,1.887748092E-1,-2.164208330E-2
8.387740625E0,3.433062509E-2,1.615825742E-1,-1.874483563E-2
8.392704688E0,3.433062509E-2,1.615825742E-1,-1.874483563E-2
8.397667188E0,2.462659590E-2,1.728399545E-1,-1.424188633E-2
8.402631250E0,2.462659590E-2,1.728399545E-1,-1.424188633E-2
8.407593750E0,1.794198528E-2,1.898569167E-1,-8.936085738E-3
8.412557813E0,1.794198528E-2,1.898569167E-1,-8.936085738E-3
8.417520313E0,8.028514567E-4,1.574461460E-1,-2.111848444E-3
8.422482813E0,8.028514567E-4,1.574461460E-1,-2.111848444E-3
8.427446875E0,-2.518510073E-2,1.214923710E-1,6.352998316E-3
8.432409375E0,-2.518510073E-2,1.214923710E-1,6.352998316E-3
8.437373438E0,-5.241223797E-2,1.109156758E-1,1.471312530E-2
8.442335938E0,-5.241223797E-2,1.109156758E-1,1.471312530E-2
8.447300000E0,-7.004006207E-2,7.541567832E-2,1.888446324E-2
8.452262500E0,-7.004006207E-2,7.541567832E-2,1.888446324E-2
8.457225000E0,-7.175048441E-2,6.832963973E-2,2.078687213E-2
8.462189063E0,-7.175048441E-2,6.832963973E-2,2.078687213E-2
8.467151563E0,-6.274458766E-2,1.024508253E-1,2.431243658E-2
8.472115625E0,-6.274458766E-2,1.024508253E-1,2.431243658E-2
8.477078125E0,-4.935790971E-2,1.291718185E-1,2.658136375E-2
8.482042188E0,-4.935790971E-2,1.291718185E-1,2.658136375E-2
8.487004688E0,-3.862413764E-2,1.419301778E-1,2.551671304E-2
8.491967188E0,-3.862413764E-2,1.419301778E-1,2.551671304E-2
8.496931250E0,-3.345796093E-2,1.432915330E-1,2.368411794E-2
8.501893750E0,-3.345796093E-2,1.432915330E-1,2.368411794E-2
8.506857813E0,-2.361430414E-2,1.565734893E-1,2.047271281E-2
8.511820313E0,-2.361430414E-2,1.565734893E-1,2.047271281E-2
8.516784375E0,-4.153883550E-3,1.842893213E-1,1.642354764E-2
8.521746875E0,-4.153883550E-3,1.842893213E-1,1.642354764E-2
8.526709375E0,1.862266287E-2,2.376789302E-1,1.364847459E-2
8.531673438E0,1.862266287E-2,2.376789302E-1,1.364847459E-2
8.536635938E0,3.748967126E-2,2.964092791E-1,1.356120780E-2
8.541600000E0,3.748967126E-2,2.964092791E-1,1.356120780E-2
8.546562500E0,4.056145251E-2,2.602635026E-1,6.579891313E-3
8.551526563E0,4.056145251E-2,2.602635026E-1,6.579891313E-3
8.556489063E0,3.321361542E-2,1.741664112E-1,-3.630284918E-3
8.561451563E0,3.321361542E-2,1.741664112E-1,-3.630284918E-3
8.566415625E0,2.474876866E-2,1.027998924E-1,-1.244419720E-2
8.571378125E0,2.474876866E-2,1.027998924E-1,-1.244419720E-2
8.576342188E0,1.769763790E-2,6.257005036E-2,-1.748819835E-2
8.581304688E0,1.769763790E-2,6.257005036E-2,-1.748819835E-2
8.586268750E0,1.483529899E-2,4.841543362E-2,-1.816887781E-2
8.591231250E0,1.483529899E-2,4.841543362E-2,-1.816887781E-2
8.596193750E0,7.208209950E-3,9.128072299E-3,-1.656317525E-2
8.601157813E0,7.208209950E-3,9.128072299E-3,-1.656317525E-2
8.606120313E0,-1.193805225E-2,-5.660102889E-2,-1.492256485E-2
8.611084375E0,-1.193805225E-2,-5.660102889E-2,-1.492256485E-2
8.616046875E0,-4.110250250E-2,-1.603259444E-1,-1.499237865E-2
8.621010938E0,-4.110250250E-2,-1.603259444E-1,-1.499237865E-2
8.625973438E0,-6.517059356E-2,-2.462310493E-1,-1.506219152E-2
8.630935938E0,-6.517059356E-2,-2.462310493E-1,-1.506219152E-2
8.635900000E0,-6.983062625E-2,-2.068564296E-1,-1.268854365E-2
8.640862500E0,-6.983062625E-2,-2.068564296E-1,-1.268854365E-2
8.645826563E0,-6.642723083E-2,-1.616000384E-1,-8.848818950E-3
8.650789063E0,-6.642723083E-2,-1.616000384E-1,-8.848818950E-3
8.655751563E0,-5.886995420E-2,-8.265879005E-2,-9.948377265E-4
8.660715625E0,-5.886995420E-2,-8.265879005E-2,-9.948377265E-4
8.665678125E0,-5.126031861E-2,-3.548254445E-2,6.544984877E-3
8.670642188E0,-5.126031861E-2,-3.548254445E-2,6.544984877E-3
8.675604688E0,-4.260348529E-2,-3.359758854E-2,9.669124149E-3
8.680568750E0,-4.260348529E-2,-3.359758854E-2,9.669124149E-3
8.685531250E0,-3.516838327E-2,-3.059562109E-2,8.360126987E-3
8.690493750E0,-3.516838327E-2,-3.059562109E-2,8.360126987E-3
8.695457813E0,-3.160791099E-2,-2.804744057E-2,4.799655639E-3
8.700420313E0,-3.160791099E-2,-2.804744057E-2,4.799655639E-3
8.705384375E0,-1.553343050E-2,1.080358773E-2,1.884955564E-3
8.710346875E0,-1.553343050E-2,1.080358773E-2,1.884955564E-3
8.715309375E0,1.326450240E-2,1.074424684E-1,1.570796361E-3
8.720273438E0,1.326450240E-2,1.074424684E-1,1.570796361E-3
8.725235938E0,4.173082113E-2,2.007303238E-1,2.234021435E-3
8.730200000E0,4.173082113E-2,2.007303238E-1,2.234021435E-3
8.735162500E0,5.902703479E-2,2.504896522E-1,3.106686054E-3
8.740126563E0,5.902703479E-2,2.504896522E-1,3.106686054E-3
8.745089063E0,6.729989499E-2,2.380454540E-1,1.029744279E-3
8.750053125E0,6.729989499E-2,2.380454540E-1,1.029744279E-3
8.755015625E0,6.901031733E-2,1.957212240E-1,-3.159045940E-3
8.759978125E0,6.901031733E-2,1.957212240E-1,-3.159045940E-3
8.764942188E0,6.611306965E-2,1.506044567E-1,-5.619960371E-3
8.769904688E0,6.611306965E-2,1.506044567E-1,-5.619960371E-3
8.774868750E0,5.654866621E-2,7.997098565E-2,-5.393067375E-3
8.779831250E0,5.654866621E-2,7.997098565E-2,-5.393067375E-3
8.784795313E0,4.581489414E-2,2.467895485E-2,-4.066617228E-3
8.789757813E0,4.581489414E-2,2.467895485E-2,-4.066617228E-3
8.794720313E0,3.644247353E-2,-1.745329238E-2,-2.495820867E-3
8.799684375E0,3.644247353E-2,-1.745329238E-2,-2.495820867E-3
8.804646875E0,2.818706818E-2,-6.190682948E-2,-1.692969352E-3
8.809610938E0,2.818706818E-2,-6.190682948E-2,-1.692969352E-3
8.814573438E0,2.059488557E-3,-1.172163114E-1,-2.303834539E-3
8.819535938E0,2.059488557E-3,-1.172163114E-1,-2.303834539E-3
8.824500000E0,-3.474950418E-2,-2.410997748E-1,-5.148721393E-3
8.829462500E0,-3.474950418E-2,-2.410997748E-1,-5.148721393E-3
8.834426563E0,-6.874851882E-2,-3.389080465E-1,-7.784168236E-3
8.839389063E0,-6.874851882E-2,-3.389080465E-1,-7.784168236E-3
8.844353125E0,-9.119345248E-2,-3.680201173E-1,-8.237954229E-3
8.849315625E0,-9.119345248E-2,-3.680201173E-1,-8.237954229E-3
8.854278125E0,-9.670869261E-2,-3.420321643E-1,-6.510077976E-3
8.859242188E0,-9.670869261E-2,-3.420321643E-1,-6.510077976E-3
8.864204688E0,-8.628907800E-2,-2.677858770E-1,-2.827433404E-3
8.869168750E0,-8.628907800E-2,-2.677858770E-1,-2.827433404E-3
8.874131250E0,-7.086037099E-2,-1.853190660E-1,5.934119690E-4
8.879095313E0,-7.086037099E-2,-1.853190660E-1,5.934119690E-4
8.884057813E0,-5.797983706E-2,-1.274264902E-1,2.984513063E-3
8.889020313E0,-5.797983706E-2,-1.274264902E-1,2.984513063E-3
8.893984375E0,-5.028293654E-2,-8.190830052E-2,4.764748737E-3
8.898946875E0,-5.028293654E-2,-8.190830052E-2,4.764748737E-3
8.903910938E0,-3.956661373E-2,-1.733111963E-2,6.213372108E-3
8.908873438E0,-3.956661373E-2,-1.733111963E-2,6.213372108E-3
8.913837500E0,-1.663298719E-2,8.970992267E-2,8.168140426E-3
8.918800000E0,-1.663298719E-2,8.970992267E-2,8.168140426E-3
8.923762500E0,1.574287005E-2,2.126858234E-1,1.123992074E-2
8.928726563E0,1.574287005E-2,2.126858234E-1,1.123992074E-2
8.933689063E0,4.471533373E-2,3.089407384E-1,1.411971357E-2
8.938653125E0,4.471533373E-2,3.089407384E-1,1.411971357E-2
8.943615625E0,5.272639543E-2,3.272666931E-1,1.612684131E-2
8.948579688E0,5.272639543E-2,3.272666931E-1,1.612684131E-2
8.953542188E0,4.560545459E-2,2.760238349E-1,1.799434423E-2
8.958504688E0,4.560545459E-2,2.760238349E-1,1.799434423E-2
8.963468750E0,3.420845419E-2,2.278527319E-1,2.143264376E-2
8.968431250E0,3.420845419E-2,2.278527319E-1,2.143264376E-2
8.973395313E0,2.151990868E-2,1.884257495E-1,2.733185515E-2
8.978357813E0,2.151990868E-2,1.884257495E-1,2.733185515E-2
8.983320313E0,1.218239777E-2,1.600466967E-1,3.429571912E-2
8.988284375E0,1.218239777E-2,1.600466967E-1,3.429571912E-2
8.993246875E0,6.649704650E-3,1.736253500E-1,4.150392860E-2
8.998210938E0,6.649704650E-3,1.736253500E-1,4.150392860E-2
9.003173438E0,-2.007128671E-2,7.433357090E-2,4.394739121E-2
9.008137500E0,-2.007128671E-2,7.433357090E-2,4.394739121E-2
9.013100000E0,-6.462953985E-2,-1.309345961E-1,3.928736225E-2
9.018062500E0,-6.462953985E-2,-1.309345961E-1,3.928736225E-2
9.023026563E0,-1.067443341E-1,-3.431317210E-1,2.897246554E-2
9.027989063E0,-1.067443341E-1,-3.431317210E-1,2.897246554E-2
9.032953125E0,-1.249132156E-1,-4.830896854E-1,1.832595654E-2
9.037915625E0,-1.249132156E-1,-4.830896854E-1,1.832595654E-2
9.042879688E0,-1.238834709E-1,-4.876798987E-1,1.303760987E-2
9.047842188E0,-1.238834709E-1,-4.876798987E-1,1.303760987E-2
9.052804688E0,-1.130449772E-1,-4.585677981E-1,1.005309634E-2
9.057768750E0,-1.130449772E-1,-4.585677981E-1,1.005309634E-2
9.062731250E0,-9.665632993E-2,-3.891560733E-1,4.433136433E-3
9.067695313E0,-9.665632993E-2,-3.891560733E-1,4.433136433E-3
9.072657813E0,-7.986626774E-2,-3.487691283E-1,-4.607669078E-3
9.077621875E0,-7.986626774E-2,-3.487691283E-1,-4.607669078E-3
9.082584375E0,-6.469935179E-2,-3.203202784E-1,-1.476548519E-2
9.087546875E0,-6.469935179E-2,-3.203202784E-1,-1.476548519E-2
9.092510938E0,-5.628686771E-2,-3.233397007E-1,-2.532472648E-2
9.097473438E0,-5.628686771E-2,-3.233397007E-1,-2.532472648E-2
9.102437500E0,-3.796090931E-2,-2.982418537E-1,-3.368485346E-2
9.107400000E0,-3.796090931E-2,-2.982418537E-1,-3.368485346E-2
9.112364063E0,-4.974188283E-3,-1.977458000E-1,-3.668681905E-2
9.117326563E0,-4.974188283E-3,-1.977458000E-1,-3.668681905E-2
9.122289063E0,3.241076320E-2,-7.126179338E-2,-3.570943698E-2
9.127253125E0,3.241076320E-2,-7.126179338E-2,-3.570943698E-2
9.132215625E0,6.044075266E-2,1.202531811E-2,-3.241076320E-2
9.137179688E0,6.044075266E-2,1.202531811E-2,-3.241076320E-2
9.142142188E0,7.600908726E-2,4.387757555E-2,-2.802998759E-2
9.147106250E0,7.600908726E-2,4.387757555E-2,-2.802998759E-2
9.152068750E0,7.717845589E-2,1.342158206E-2,-2.481858246E-2
9.157031250E0,7.717845589E-2,1.342158206E-2,-2.481858246E-2
9.161995313E0,7.176794112E-2,-4.867723212E-2,-2.364921197E-2
9.166957813E0,7.176794112E-2,-4.867723212E-2,-2.364921197E-2
9.171921875E0,6.445501000E-2,-9.051277488E-2,-1.968731359E-2
9.176884375E0,6.445501000E-2,-9.051277488E-2,-1.968731359E-2
9.181848438E0,5.513495207E-2,-9.543460608E-2,-1.233947743E-2
9.186810938E0,5.513495207E-2,-9.543460608E-2,-1.233947743E-2
9.191773438E0,4.581489414E-2,-1.086991057E-1,-4.904375412E-3
9.196737500E0,4.581489414E-2,-1.086991057E-1,-4.904375412E-3
9.201700000E0,3.972369432E-2,-1.185253114E-1,9.250245057E-4
9.206664063E0,3.972369432E-2,-1.185253114E-1,9.250245057E-4
9.211626563E0,3.354522958E-2,-1.604481190E-1,1.500983140E-3
9.216589063E0,3.354522958E-2,-1.604481190E-1,1.500983140E-3
9.221553125E0,2.049016580E-2,-2.338043004E-1,-2.722713631E-3
9.226515625E0,2.049016580E-2,-2.338043004E-1,-2.722713631E-3
9.231479688E0,4.450589418E-3,-3.324503005E-1,-9.128072299E-3
9.236442188E0,4.450589418E-3,-3.324503005E-1,-9.128072299E-3
9.241404688E0,-7.661995478E-3,-3.729768693E-1,-1.364847459E-2
9.246368750E0,-7.661995478E-3,-3.729768693E-1,-1.364847459E-2
9.251332813E0,-1.132718660E-2,-3.780906796E-1,-1.464331243E-2
9.256293750E0,-1.132718660E-2,-3.780906796E-1,-1.464331243E-2
9.261257813E0,-5.585053470E-3,-3.295181692E-1,-1.520181727E-2
9.266221875E0,-5.585053470E-3,-3.295181692E-1,-1.520181727E-2
9.271184375E0,3.438298590E-3,-2.835636437E-1,-1.853539608E-2
9.276146875E0,3.438298590E-3,-2.835636437E-1,-1.853539608E-2
9.281109375E0,1.143190637E-2,-2.547831535E-1,-2.274163999E-2
9.286073438E0,1.143190637E-2,-2.547831535E-1,-2.274163999E-2
9.291037500E0,1.293289009E-2,-2.538057864E-1,-2.672099136E-2
9.296000000E0,1.293289009E-2,-2.538057864E-1,-2.672099136E-2
9.300964063E0,2.422516979E-2,-2.078338116E-1,-2.818706818E-2
9.305926563E0,2.422516979E-2,-2.078338116E-1,-2.818706818E-2
9.310890625E0,5.183627829E-2,-1.026428118E-1,-2.488839440E-2
9.315851563E0,5.183627829E-2,-1.026428118E-1,-2.488839440E-2
9.320815625E0,8.325220644E-2,3.045599535E-2,-1.850049011E-2
9.325779688E0,8.325220644E-2,3.045599535E-2,-1.850049011E-2
9.330742188E0,9.990264475E-2,1.131846011E-1,-1.207767799E-2
9.335706250E0,9.990264475E-2,1.131846011E-1,-1.207767799E-2
9.340668750E0,9.538224339E-2,1.122770309E-1,-9.861109778E-3
9.345631250E0,9.538224339E-2,1.122770309E-1,-9.861109778E-3
9.350595313E0,7.890633494E-2,9.890780598E-2,-2.670353744E-3
9.355557813E0,7.890633494E-2,9.890780598E-2,-2.670353744E-3
9.360520313E0,5.759586394E-2,9.470156580E-2,1.251401100E-2
9.365484375E0,5.759586394E-2,9.470156580E-2,1.251401100E-2
9.370448438E0,3.904301673E-2,1.257509738E-1,3.031636961E-2
9.375410938E0,3.904301673E-2,1.257509738E-1,3.031636961E-2
9.380373438E0,2.799508162E-2,1.677785069E-1,4.616395757E-2
9.385337500E0,2.799508162E-2,1.677785069E-1,4.616395757E-2
9.390300000E0,1.799434423E-2,1.962797344E-1,5.607742816E-2
9.395264063E0,1.799434423E-2,1.962797344E-1,5.607742816E-2
9.400226563E0,-7.976154797E-3,1.311614960E-1,5.686282739E-2
9.405189063E0,-7.976154797E-3,1.311614960E-1,5.686282739E-2
9.410153125E0,-4.576253146E-2,2.185152285E-2,5.297074094E-2
9.415115625E0,-4.576253146E-2,2.185152285E-2,5.297074094E-2
9.420079688E0,-7.166321576E-2,-7.136651129E-2,4.628613219E-2
9.425042188E0,-7.166321576E-2,-7.136651129E-2,4.628613219E-2
9.430006250E0,-7.780677825E-2,-9.683086723E-2,4.143411666E-2
9.434968750E0,-7.780677825E-2,-9.683086723E-2,4.143411666E-2
9.439931250E0,-7.164576650E-2,-8.100073040E-2,3.839724511E-2
9.444893750E0,-7.164576650E-2,-8.100073040E-2,3.839724511E-2
9.449857813E0,-6.065019220E-2,-5.136504024E-2,3.741985932E-2
9.454820313E0,-6.065019220E-2,-5.136504024E-2,3.741985932E-2
9.459784375E0,-5.108578876E-2,-1.528908405E-2,3.710569814E-2
9.464746875E0,-5.108578876E-2,-1.528908405E-2,3.710569814E-2
9.469710938E0,-4.246386141E-2,6.702064537E-3,3.520328924E-2
9.474673438E0,-4.246386141E-2,6.702064537E-3,3.520328924E-2
9.479635938E0,-3.792600334E-2,7.627088577E-3,3.178244457E-2
9.484600000E0,-3.792600334E-2,7.627088577E-3,3.178244457E-2
9.489564063E0,-2.562143281E-2,3.876376152E-2,2.963569015E-2
9.494526563E0,-2.562143281E-2,3.876376152E-2,2.963569015E-2
9.499489063E0,-5.829399452E-3,9.723228961E-2,2.848377265E-2
9.504453125E0,-5.829399452E-3,9.723228961E-2,2.848377265E-2
9.509415625E0,1.439896598E-2,1.583188176E-1,2.876302600E-2
9.514378125E0,1.439896598E-2,1.583188176E-1,2.876302600E-2
9.519342188E0,2.427753061E-2,1.890191585E-1,3.038618155E-2
9.524304688E0,2.427753061E-2,1.890191585E-1,3.038618155E-2
9.529268750E0,2.427753061E-2,2.016204298E-1,3.548254445E-2
9.534231250E0,2.427753061E-2,2.016204298E-1,3.548254445E-2
9.539193750E0,1.822123677E-2,2.078861594E-1,4.511675984E-2
9.544157813E0,1.822123677E-2,2.078861594E-1,4.511675984E-2
9.549121875E0,1.000073645E-2,2.384992391E-1,6.126105785E-2
9.554084375E0,1.000073645E-2,2.384992391E-1,6.126105785E-2
9.559046875E0,1.064650831E-3,2.604903877E-1,7.871434838E-2
9.564010938E0,1.064650831E-3,2.604903877E-1,7.871434838E-2
9.568973438E0,-4.904375412E-3,2.826909721E-1,9.245008975E-2
9.573935938E0,-4.904375412E-3,2.826909721E-1,9.245008975E-2
9.578900000E0,-7.120943163E-3,2.964790761E-1,9.847147763E-2
9.583864063E0,-7.120943163E-3,2.964790761E-1,9.847147763E-2
9.588826563E0,-2.535963431E-2,2.367713600E-1,9.712757170E-2
9.593789063E0,-2.535963431E-2,2.367713600E-1,9.712757170E-2
9.598753125E0,-5.890486389E-2,1.155407950E-1,9.011135250E-2
9.603715625E0,-5.890486389E-2,1.155407950E-1,9.011135250E-2
9.608678125E0,-9.199630469E-2,-3.712315485E-2,7.778932154E-2
9.613642188E0,-9.199630469E-2,-3.712315485E-2,7.778932154E-2
9.618604688E0,-1.138129234E-1,-1.525766850E-1,6.435029209E-2
9.623568750E0,-1.138129234E-1,-1.525766850E-1,6.435029209E-2
9.628531250E0,-1.199390292E-1,-1.953896135E-1,5.331980810E-2
9.633495313E0,-1.199390292E-1,-1.953896135E-1,5.331980810E-2
9.638457813E0,-1.101651788E-1,-1.875879914E-1,4.731587693E-2
9.643420313E0,-1.101651788E-1,-1.875879914E-1,4.731587693E-2
9.648384375E0,-9.173450619E-2,-1.710422635E-1,3.618067503E-2
9.653346875E0,-9.173450619E-2,-1.710422635E-1,3.618067503E-2
9.658310938E0,-7.040657848E-2,-1.692969352E-1,1.916371472E-2
9.663273438E0,-7.040657848E-2,-1.692969352E-1,1.916371472E-2
9.668237500E0,-5.098106712E-2,-1.712691635E-1,4.014257283E-4
9.673200000E0,-5.098106712E-2,-1.712691635E-1,4.014257283E-4
9.678164063E0,-4.303981736E-2,-2.015331686E-1,-1.499237865E-2
9.683126563E0,-4.303981736E-2,-2.015331686E-1,-1.499237865E-2
9.688089063E0,-1.675515994E-2,-1.559800804E-1,-1.944296807E-2
9.693053125E0,-1.675515994E-2,-1.559800804E-1,-1.944296807E-2
9.698015625E0,3.460988030E-2,-1.125737373E-2,-1.558579039E-2
9.702979688E0,3.460988030E-2,-1.125737373E-2,-1.558579039E-2
9.707942188E0,9.011135250E-2,1.645147353E-1,-1.024508290E-2
9.712904688E0,9.011135250E-2,1.645147353E-1,-1.024508290E-2
9.717868750E0,1.221206859E-1,2.726204395E-1,-6.056292448E-3
9.722831250E0,1.221206859E-1,2.726204395E-1,-6.056292448E-3
9.727795313E0,1.256287992E-1,2.732312977E-1,-4.223696887E-3
9.732757813E0,1.256287992E-1,2.732312977E-1,-4.223696887E-3
9.737721875E0,1.120675877E-1,2.235941291E-1,-4.258603323E-3
9.742684375E0,1.120675877E-1,2.235941291E-1,-4.258603323E-3
9.747646875E0,9.347983450E-2,1.695761830E-1,-3.420845373E-3
9.752610938E0,9.347983450E-2,1.695761830E-1,-3.420845373E-3
9.757573438E0,7.461282611E-2,1.230806187E-1,-1.169370604E-3
9.762537500E0,7.461282611E-2,1.230806187E-1,-1.169370604E-3
9.767500000E0,6.180210784E-2,9.730210900E-2,1.762782573E-3
9.772464063E0,6.180210784E-2,9.730210900E-2,1.762782573E-3
9.777426563E0,4.948008433E-2,7.559020817E-2,6.038838997E-3
9.782389063E0,4.948008433E-2,7.559020817E-2,6.038838997E-3
9.787353125E0,2.047271281E-2,2.333505265E-2,1.101302728E-2
9.792315625E0,2.047271281E-2,2.333505265E-2,1.101302728E-2
9.797279688E0,-2.136282995E-2,-5.824163556E-2,1.659808122E-2
9.802242188E0,-2.136282995E-2,-5.824163556E-2,1.659808122E-2
9.807204688E0,-5.490805954E-2,-1.296779662E-1,2.071705833E-2
9.812168750E0,-5.490805954E-2,-1.296779662E-1,2.071705833E-2
9.817131250E0,-6.789331138E-2,-1.259604096E-1,2.457423508E-2
9.822095313E0,-6.789331138E-2,-1.259604096E-1,2.457423508E-2
9.827057813E0,-6.712536514E-2,-9.171704948E-2,2.705260366E-2
9.832021875E0,-6.712536514E-2,-9.171704948E-2,2.705260366E-2
