"Time (s)","Acceleration x (m/s^2)","Acceleration y (m/s^2)","Acceleration z (m/s^2)"
0.000000000E0,4.690432847E-1,1.007851696E1,2.256353140E0
4.962500000E-3,7.274637818E-1,1.008330441E1,2.265920401E0
9.925000000E-3,1.139036655E0,1.002109337E1,2.091248989E0
1.488906200E-2,1.335246325E0,9.867951393E0,1.873501062E0
1.985312500E-2,1.440533638E0,9.779414177E0,1.631820798E0
2.481718700E-2,1.421389699E0,9.710029602E0,1.359044671E0
2.977968700E-2,1.340034723E0,9.705241203E0,1.268112898E0
3.474218700E-2,1.284996867E0,9.710029602E0,9.522601962E-1
3.970468700E-2,9.404328465E-1,9.683703423E0,8.086943030E-1
4.466718700E-2,7.178965807E-1,9.693280220E0,6.627342105E-1
4.963281200E-2,5.886863470E-1,9.674136162E0,4.545535445E-1
5.459531200E-2,4.522934258E-1,9.619097710E0,2.966320217E-1
5.955781200E-2,2.082285136E-1,9.702846527E0,2.918435931E-1
6.452187500E-2,-6.694187969E-2,9.712413788E0,1.554507315E-1
6.948437500E-2,-3.373238444E-1,9.712413788E0,2.296326756E-1
7.444843700E-2,-4.354382753E-1,9.710029602E0,1.530565321E-1
7.941093700E-2,-4.402170777E-1,9.726778984E0,1.363066882E-1
8.437500000E-2,-4.282556474E-1,9.738740921E0,2.128828466E-1
8.933593700E-2,-4.019385576E-1,9.726778984E0,3.229490519E-1
9.430000000E-2,-3.756119311E-1,9.714808464E0,5.143703222E-1
9.926250000E-2,-3.732177317E-1,9.733952522E0,7.704062462E-1
1.042265620E-1,-2.081135809E-1,9.772240639E0,9.379045963E-1
1.091906250E-1,-2.081135809E-1,9.824884415E0,9.857599139E-1
1.141531250E-1,-1.650466919E-1,9.810519218E0,1.083864689E0
1.191171870E-1,-1.770081222E-1,9.805740356E0,1.002509713E0
1.240796870E-1,-1.841907203E-1,9.808135033E0,9.259431362E-1
1.290421870E-1,-1.147971824E-1,9.817702293E0,8.661168218E-1
1.340046870E-1,-5.258624628E-2,9.827268600E0,7.871560454E-1
1.389687500E-1,-3.344221041E-2,9.872738838E0,7.943387032E-1
1.439328120E-1,-6.215347722E-2,9.867951393E0,7.584447861E-1
1.488953120E-1,-5.975927413E-2,9.858384132E0,9.474717975E-1
1.538578120E-1,2.877830528E-2,9.870346069E0,9.642215967E-1
1.588218750E-1,-3.104800731E-2,9.884700775E0,1.036009431E0
1.637843750E-1,-1.171913818E-1,9.875133514E0,1.103008628E0
1.687484370E-1,-1.650466919E-1,9.956489563E0,1.191546321E0
1.737109370E-1,-2.009405643E-1,9.951700211E0,1.201113582E0
1.786734370E-1,-1.746139228E-1,9.927767754E0,1.174796462E0
1.836359370E-1,-6.454767287E-2,9.908634186E0,1.170008063E0
1.886015620E-1,3.116292879E-2,9.911018372E0,1.050364971E0
1.935640620E-1,5.748957023E-2,9.942132950E0,1.103008628E0
1.985265620E-1,-7.115567569E-3,9.896661758E0,1.093441486E0
2.034906250E-1,-1.429817267E-2,9.920595169E0,1.122152686E0
2.084531250E-1,-3.822103515E-2,9.932557106E0,1.153258204E0
2.134156250E-1,-2.147120051E-2,9.903844833E0,1.124547005E0
2.183796870E-1,2.451662440E-3,9.944517136E0,1.203507662E0
2.233421870E-1,-8.847054094E-2,9.920595169E0,1.201113582E0
2.283046870E-1,-1.243644133E-1,9.899056435E0,1.110191226E0
2.332687500E-1,-5.497087166E-2,9.934949875E0,1.083864689E0
2.382328120E-1,-2.272576243E-1,1.001630592E1,1.143691063E0
2.431953120E-1,-2.440074682E-1,9.946911812E0,1.170008063E0
2.481578120E-1,-2.248634249E-1,9.927767754E0,1.191546321E0
2.531203120E-1,-2.296518236E-1,9.899056435E0,1.203507662E0
2.580843750E-1,-1.411142498E-1,9.889489174E0,1.067114830E0
2.630468750E-1,-1.530852467E-1,9.832057953E0,1.004903913E0
2.680109370E-1,-1.411142498E-1,9.920595169E0,1.012086511E0
2.729734370E-1,-2.559688985E-1,9.844018936E0,1.033615232E0
2.779359370E-1,-3.110068142E-1,9.832057953E0,9.833656549E-1
2.829015620E-1,-2.487958670E-1,9.896661758E0,9.187605381E-1
2.878640620E-1,-2.416132689E-1,9.824884415E0,8.350113630E-1
2.928281250E-1,-2.535746992E-1,9.848807335E0,7.081953287E-1
2.977906250E-1,-3.134010136E-1,9.805740356E0,6.770898700E-1
3.027531250E-1,-3.229682446E-1,9.827268600E0,8.230499029E-1
3.077156250E-1,-3.277566135E-1,9.841633797E0,7.321181893E-1
3.126796870E-1,-2.870743573E-1,9.829663277E0,8.206557035E-1
3.176421870E-1,-2.559688985E-1,9.858384132E0,8.134731650E-1
3.226046870E-1,-2.966511548E-1,9.817702293E0,7.895502448E-1
3.275687500E-1,-2.440074682E-1,9.824884415E0,8.780878186E-1
3.325312500E-1,-3.038241863E-1,9.815307617E0,9.139720798E-1
3.374953120E-1,-2.775071263E-1,9.841633797E0,9.618370533E-1
3.424578120E-1,-2.296518236E-1,9.877518654E0,1.009692311E0
3.474203120E-1,-2.440074682E-1,9.853595734E0,9.857599139E-1
3.523843750E-1,-3.588621020E-1,9.827268600E0,9.714042544E-1
3.573484370E-1,-3.660447001E-1,9.858384132E0,9.091932774E-1
3.623109370E-1,-3.086126149E-1,9.879913330E0,8.756936789E-1
3.672734370E-1,-1.913637519E-1,9.882307053E0,8.852608800E-1
3.722375000E-1,-9.565314651E-2,9.920595169E0,8.876550794E-1
3.772000000E-1,-4.061523825E-2,9.827268600E0,8.900492787E-1
3.821640620E-1,3.116292879E-2,9.889489174E0,8.852608800E-1
3.871265620E-1,1.202846877E-2,9.884700775E0,8.852608800E-1
3.920906250E-1,9.338344634E-2,9.915806770E0,7.751946449E-1
3.970531250E-1,1.029410958E-1,9.848807335E0,8.110885024E-1
4.020171870E-1,1.101237014E-1,9.911018372E0,9.211547375E-1
4.069796870E-1,5.509537086E-2,9.934949875E0,9.139720798E-1
4.119437500E-1,-7.115567569E-3,9.970844269E0,9.690100551E-1
4.169062500E-1,-1.669237576E-2,9.906239510E0,9.833656549E-1
4.218687500E-1,-4.540364072E-2,1.004023838E1,9.905482531E-1
4.268328120E-1,-4.300943762E-2,9.927767754E0,9.546543956E-1
4.317953120E-1,2.638410218E-2,9.963662148E0,1.012086511E0
4.367578120E-1,5.748957023E-2,9.882307053E0,1.038403511E0
4.417218750E-1,1.053352952E-1,9.942132950E0,1.052759290E0
4.466859370E-1,8.620083332E-2,9.920595169E0,1.007298112E0
4.516484370E-1,7.184520364E-2,9.846412659E0,1.091047287E0
4.566109370E-1,5.509537086E-2,9.884700775E0,1.076691628E0
4.615734370E-1,5.270116776E-2,9.934949875E0,1.117364407E0
4.665375000E-1,5.988377333E-2,9.899056435E0,1.158046603E0
4.715000000E-1,6.227797270E-2,9.899056435E0,1.088653088E0
4.764625000E-1,3.355713189E-2,9.879913330E0,1.059941769E0
4.814265620E-1,1.680729724E-2,9.848807335E0,1.024047971E0
4.863890620E-1,-6.694187969E-2,9.839240074E0,9.522601962E-1
4.913531250E-1,-4.540364072E-2,9.827268600E0,9.331161380E-1
4.963156250E-1,-1.004415527E-1,9.848807335E0,9.283373356E-1
5.012781250E-1,-6.694187969E-2,9.808135033E0,8.709052205E-1
5.062421870E-1,-1.387200505E-1,9.839240074E0,8.972222805E-1
5.112046870E-1,-2.176903933E-1,9.777029037E0,9.187605381E-1
5.161687500E-1,-1.889695525E-1,9.829663277E0,9.666158557E-1
5.211312500E-1,-1.602582783E-1,9.896661758E0,1.076691628E0
5.260953120E-1,-9.804734588E-2,9.815307617E0,1.055153489E0
5.310578120E-1,-9.086474776E-2,9.891883850E0,1.117364407E0
5.360218750E-1,-1.387200505E-1,9.836845398E0,1.153258204E0
5.409843750E-1,-8.369170874E-2,9.913412094E0,1.313573956E0
5.459468750E-1,-7.172070444E-2,9.822490692E0,1.428428531E0
5.509109370E-1,-4.721365869E-3,9.836845398E0,1.449966788E0
5.558734370E-1,-9.509769268E-3,9.875133514E0,1.493043303E0
5.608375000E-1,-2.625960298E-2,9.815307617E0,1.449966788E0
5.658000000E-1,-7.890331000E-2,9.817702293E0,1.296824098E0
5.707625000E-1,-1.315470189E-1,9.777029037E0,1.332718015E0
5.757265620E-1,1.920149848E-2,9.788990021E0,1.189152122E0
5.806890620E-1,-1.669237576E-2,9.745914459E0,1.136508465E0
5.856531250E-1,-1.908657700E-2,9.755491257E0,1.098220348E0
5.906156250E-1,-7.890331000E-2,9.731558800E0,9.618370533E-1
5.955796870E-1,-7.172070444E-2,9.724386215E0,9.666158557E-1
6.005421870E-1,7.240065839E-3,9.710029602E0,8.804724813E-1
6.055046870E-1,4.845864139E-3,9.674136162E0,7.919444442E-1
6.104687500E-1,8.141243458E-2,9.650202751E0,7.464833260E-1
6.154328120E-1,1.771230400E-1,9.604742050E0,6.268403530E-1
6.203953120E-1,2.752278447E-1,9.554492950E0,6.388017535E-1
6.253593750E-1,1.122286916E0,9.592781067E0,3.971310258E-1
6.303218750E-1,1.749203682E0,9.114209175E0,-6.987813115E-1
6.352843750E-1,1.723346412E-1,9.006537437E0,-1.914978325E-1
6.402484370E-1,-7.728195786E-1,9.276928902E0,5.287354589E-1
6.452109370E-1,-1.138921738E0,9.930162430E0,8.709052205E-1
6.501734370E-1,-9.570677280E-1,1.012637234E1,1.141296744E0
6.551375000E-1,-4.282556474E-1,1.006176662E1,1.215469122E0
6.601000000E-1,1.244793311E-1,9.774634361E0,1.301612496E0
6.650640620E-1,4.379377961E-1,9.576031685E0,1.325544953E0
6.700265620E-1,4.331493974E-1,9.542531013E0,1.349467874E0
6.749906250E-1,4.642548561E-1,9.619097710E0,1.497822165E0
6.799531250E-1,3.422271907E-1,9.690885544E0,1.600715280E0
6.849156250E-1,3.087275028E-1,9.693280220E0,1.746675491E0
6.898796870E-1,2.393339872E-1,9.733952522E0,1.985961556E0
6.948421870E-1,1.555848122E-1,9.841633797E0,1.983567357E0
6.998062500E-1,-2.865380608E-2,9.884700775E0,2.072104931E0
7.047687500E-1,-1.650466919E-1,9.927767754E0,2.067316532E0
7.097328120E-1,-2.535746992E-1,9.949306488E0,1.983567357E0
7.146953120E-1,-1.578640938E-1,9.992383003E0,1.844780326E0
7.196593750E-1,-5.258624628E-2,9.934949875E0,1.780175209E0
7.246218750E-1,7.184520364E-2,9.865556717E0,1.593542337E0
7.295843750E-1,2.058342993E-1,9.817702293E0,1.485860705E0
7.345484370E-1,1.507963985E-1,9.741134644E0,1.433217049E0
7.395109370E-1,1.436233670E-1,9.714808464E0,1.308795214E0
7.444750000E-1,1.962575018E-1,9.690885544E0,1.430822849E0
7.494375000E-1,-2.386540174E-2,9.875133514E0,1.229824781E0
7.544000000E-1,-1.626524776E-1,9.901451111E0,1.232218981E0
7.593640620E-1,-2.272576243E-1,9.894268990E0,1.059941769E0
7.643265620E-1,-3.229682446E-1,9.872738838E0,1.062336087E0
7.692906250E-1,-3.134010136E-1,9.918201447E0,1.021653771E0
7.742531250E-1,-3.134010136E-1,9.915806770E0,1.146075726E0
7.792171870E-1,-3.205740452E-1,9.867951393E0,1.201113582E0
7.841796870E-1,-2.344402373E-1,9.860768318E0,1.201113582E0
7.891421870E-1,-2.799013257E-1,9.798557281E0,1.217863441E0
7.941062500E-1,-2.344402373E-1,9.777029037E0,1.270507097E0
7.990687500E-1,-2.894685566E-1,9.736346245E0,1.248968840E0
8.040328120E-1,-4.091115892E-1,9.729164124E0,1.256151438E0
8.089953120E-1,-3.277566135E-1,9.765057564E0,1.337506413E0
8.139593750E-1,-2.511900663E-1,9.762663841E0,1.454755306E0
8.189218750E-1,-2.511900663E-1,9.779414177E0,1.464322567E0
8.238843750E-1,-2.583630979E-1,9.848807335E0,1.600715280E0
8.288484370E-1,-3.397180736E-1,9.851201057E0,1.459543705E0
8.338109370E-1,-3.612563312E-1,9.812912941E0,1.457149386E0
8.387750000E-1,-2.966511548E-1,9.781807899E0,1.512177706E0
8.437375000E-1,-3.397180736E-1,9.791384697E0,1.447572589E0
8.487015620E-1,-2.296518236E-1,9.865556717E0,1.490649223E0
8.536640620E-1,-3.564679027E-1,9.820096016E0,1.531321764E0
8.586265620E-1,-3.469006717E-1,9.846412659E0,1.478678107E0
8.635906250E-1,-2.846897244E-1,9.872738838E0,1.485860705E0
8.685531250E-1,-3.086126149E-1,9.829663277E0,1.438005328E0
8.735171870E-1,-2.679399252E-1,9.884700775E0,1.552860141E0
8.784796870E-1,-2.966511548E-1,9.899056435E0,1.516966224E0
8.834421870E-1,-2.799013257E-1,9.865556717E0,1.457149386E0
8.884062500E-1,-2.655456960E-1,9.867951393E0,1.399717450E0
8.933687500E-1,-3.014395833E-1,9.949306488E0,1.481072307E0
8.983328120E-1,-3.062183857E-1,9.805740356E0,1.521754622E0
9.032953120E-1,-3.134010136E-1,9.827268600E0,1.421255589E0
9.082593750E-1,-3.014395833E-1,9.872738838E0,1.392544270E0
9.132218750E-1,-2.942569554E-1,9.832057953E0,1.404505730E0
9.181843750E-1,-2.942569554E-1,9.822490692E0,1.363823533E0
9.231484370E-1,-3.038241863E-1,9.844018936E0,1.378179073E0
9.281109370E-1,-3.469006717E-1,9.870346069E0,1.349467874E0
9.330750000E-1,-3.038241863E-1,9.772240639E0,1.406899929E0
9.380375000E-1,-2.009405643E-1,9.891883850E0,1.459543705E0
9.430015620E-1,-1.459026486E-1,9.930162430E0,1.545677543E0
9.479640620E-1,-1.291528195E-1,9.896661758E0,1.689252973E0
9.529265620E-1,-1.028357521E-1,9.939739227E0,1.715570092E0
9.578906250E-1,-1.219702139E-1,9.908634186E0,1.784963489E0
9.628531250E-1,-2.703245282E-1,9.968450546E0,1.966817498E0
9.678171870E-1,2.877830528E-2,9.961267471E0,1.971606016E0
9.727796870E-1,2.752278447E-1,9.824884415E0,1.801713347E0
9.777437500E-1,3.685442507E-1,9.707635880E0,1.507398963E0
9.827062500E-1,2.512954175E-1,9.671741486E0,1.234613180E0
9.876687500E-1,8.141243458E-2,9.719596863E0,9.977213144E-1
9.926328120E-1,1.436233670E-1,9.738740921E0,6.914454103E-1
9.975953120E-1,2.154015303E-1,9.779414177E0,4.760918021E-1
1.002559375E0,3.374387920E-1,9.769846916E0,3.851599991E-1
1.007521875E0,3.661500514E-1,9.765057564E0,4.330153167E-1
1.012485937E0,4.211879671E-1,9.743529320E0,5.502641797E-1
1.017448437E0,3.494002223E-1,9.698058128E0,6.627342105E-1
1.022410937E0,2.776220441E-1,9.714808464E0,6.818686724E-1
1.027375000E0,2.201899439E-1,9.731558800E0,6.364075541E-1
1.032337500E0,1.603731960E-1,9.745914459E0,4.210538864E-1
1.037301562E0,2.177957445E-1,9.695664406E0,1.913446039E-1
1.042264062E0,1.531905979E-1,9.774634361E0,1.937388033E-1
1.047228125E0,2.560837865E-1,9.788990021E0,4.689091742E-1
1.052190625E0,2.895835042E-1,9.767452240E0,6.316191554E-1
1.057153125E0,3.541886210E-1,9.812912941E0,8.637226820E-1
1.062117187E0,3.828999102E-1,9.884700775E0,1.043192029E0
1.067079687E0,3.661500514E-1,9.884700775E0,1.004903913E0
1.072043750E0,3.589770198E-1,9.877518654E0,9.235489368E-1
1.077006250E0,3.589770198E-1,9.908634186E0,8.565496206E-1
1.081970312E0,3.494002223E-1,9.853595734E0,8.756936789E-1
1.086932812E0,2.345455736E-1,9.870346069E0,9.067991376E-1
1.091895312E0,1.938728839E-1,9.879913330E0,8.517611623E-1
1.096859375E0,3.595133126E-2,1.002826691E1,8.852608800E-1
1.101821875E0,-9.565314651E-2,1.007851696E1,9.235489368E-1
1.106785937E0,-2.176903933E-1,9.992383003E0,9.450871348E-1
1.111748437E0,-3.373238444E-1,9.968450546E0,9.977213144E-1
1.116712500E0,-4.091115892E-1,9.877518654E0,8.924434781E-1
1.121675000E0,-6.268594265E-1,9.867951393E0,8.709052205E-1
1.126637500E0,-7.847905755E-1,9.788990021E0,7.656177878E-1
1.131601562E0,-9.140008688E-1,9.851201057E0,8.350113630E-1
1.136564062E0,-9.762117863E-1,9.820096016E0,7.799734473E-1
1.141528125E0,-1.047999501E0,9.788990021E0,8.445882201E-1
1.146490625E0,-1.052778363E0,9.822490692E0,9.809715152E-1
1.151454687E0,-9.786060452E-1,9.925383568E0,1.040797710E0
1.156417187E0,-9.977500439E-1,9.946911812E0,1.016865373E0
1.161379687E0,-9.810001850E-1,9.930162430E0,7.967232466E-1
1.166343750E0,-1.050393820E0,9.760279655E0,6.459843516E-1
1.171306250E0,-1.160459995E0,9.853595734E0,6.531573534E-1
1.176270312E0,-1.205921173E0,9.855990410E0,6.053020358E-1
1.181232812E0,-1.138921738E0,1.011441040E1,9.402987957E-1
1.186195312E0,-2.340121508E0,9.791384697E0,1.883068323E0
1.191159375E0,-3.132142544E0,9.506637573E0,1.476293445E0
1.196121875E0,-1.129354477E0,9.908634186E0,9.259431362E-1
1.201085937E0,-4.234672487E-1,1.016705418E1,6.053020358E-1
1.206048437E0,-7.890331000E-2,1.021730328E1,9.953366518E-1
1.211010937E0,1.412291676E-1,1.003305531E1,1.335112214E0
1.215975000E0,3.326503932E-1,9.827268600E0,1.591148138E0
1.220937500E0,4.642548561E-1,9.753096581E0,1.773002028E0
1.225900000E0,-5.736507475E-2,9.798557281E0,1.851962924E0
1.230864062E0,-2.147120051E-2,9.846412659E0,1.808895946E0
1.235826562E0,2.034401149E-1,9.920595169E0,1.708397031E0
1.240790625E0,4.762258530E-1,9.956489563E0,1.567215681E0
1.245753125E0,7.322521806E-1,9.966055870E0,1.442793846E0
1.250717187E0,1.000249624E0,9.925383568E0,1.208296180E0
1.255679687E0,9.715383053E-1,9.913412094E0,1.313573956E0
1.260643750E0,1.127065659E0,1.000434399E1,1.373400211E0
1.265606250E0,1.409418702E0,9.980412483E0,1.495427966E0
1.270570312E0,1.557782650E0,9.980412483E0,1.679676175E0
1.275532812E0,1.438139558E0,9.970844269E0,2.057749271E0
1.280495312E0,8.806065917E-1,9.772240639E0,2.366419315E0
1.285459375E0,1.883202434E0,1.045180130E1,2.064922333E0
1.290421875E0,2.732655525E0,1.048530102E1,1.878279924E0
1.295385937E0,2.837933302E0,1.014073753E1,1.713175774E0
1.300348437E0,2.129661560E0,9.750701904E0,1.447572589E0
1.305312500E0,1.359169245E0,9.712413788E0,1.126941204E0
1.310275000E0,4.379377961E-1,9.846412659E0,8.685110211E-1
1.315239062E0,-2.822955251E-1,1.001630592E1,7.656177878E-1
1.320201562E0,-4.904665947E-1,9.853595734E0,1.004903913E0
1.325164062E0,-7.823963761E-1,9.681308746E0,9.450871348E-1
1.330128125E0,-1.009711504E0,9.743529320E0,1.050364971E0
1.335090625E0,-1.246603370E0,9.930162430E0,1.153258204E0
1.340054687E0,-1.172421336E0,9.968450546E0,1.136508465E0
1.345017187E0,5.270116776E-2,8.798356056E0,1.950067759E0
1.349979687E0,-4.952549636E-1,9.609530449E0,2.040999413E0
1.354942187E0,-7.130028605E-1,9.786596298E0,2.103210449E0
1.359906250E0,-1.045605302E0,9.712413788E0,2.182171106E0
1.364870312E0,-1.114998937E0,9.518598557E0,1.895029783E0
1.369832812E0,-1.150883198E0,9.442031860E0,1.655753255E0
1.374796875E0,-1.136527538E0,9.475532532E0,1.459543705E0
1.379759375E0,-1.136527538E0,9.549704552E0,1.215469122E0
1.384721875E0,-1.191565394E0,9.640635490E0,1.076691628E0
1.389685937E0,-1.294458628E0,9.599953651E0,8.828666210E-1
1.394648437E0,-1.198747993E0,9.525781631E0,8.900492787E-1
1.399612500E0,-1.110210419E0,9.609530449E0,8.063001037E-1
1.404575000E0,-1.036028624E0,9.602347374E0,7.345123291E-1
1.409539062E0,-9.881732464E-1,9.564060211E0,5.694081783E-1
1.414501562E0,-9.953558445E-1,9.626279831E0,4.689091742E-1
1.419464062E0,-1.036028624E0,9.657385826E0,4.138808548E-1
1.424428125E0,-1.086278081E0,9.733952522E0,4.114866555E-1
1.429390625E0,-1.057566762E0,9.760279655E0,4.114866555E-1
1.434354687E0,-9.427121878E-1,9.695664406E0,3.708043694E-1
1.439317187E0,-9.594619870E-1,9.736346245E0,4.019098580E-1
1.444281250E0,-9.451063275E-1,9.712413788E0,4.066982567E-1
1.449243750E0,-1.007317305E0,9.731558800E0,4.090924561E-1
1.454206250E0,-1.059960961E0,9.793779373E0,4.617361724E-1
1.459170312E0,-1.076710820E0,9.901451111E0,4.449863136E-1
1.464132812E0,-1.091066360E0,9.978017807E0,4.641303718E-1
1.469096875E0,-1.141315937E0,9.997160912E0,4.449863136E-1
1.474059375E0,-1.181998134E0,1.000673866E1,4.521593750E-1
1.479023437E0,-1.172421336E0,9.951700211E0,4.473805130E-1
1.483985937E0,-1.086278081E0,9.920595169E0,3.277374804E-1
1.488948437E0,-9.905674458E-1,9.899056435E0,3.420931101E-1
1.493912500E0,-8.541745543E-1,9.927767754E0,1.004128158E-1
1.498875000E0,-8.565687537E-1,9.872738838E0,1.188481692E-2
1.503839062E0,-8.685302138E-1,9.834450722E0,6.213432178E-2
1.508801562E0,-9.116066694E-1,9.903844833E0,2.057002187E-1
1.513765625E0,-9.235681295E-1,9.963662148E0,2.990166247E-1
1.518728125E0,-8.613571525E-1,9.901451111E0,4.880532324E-1
1.523690625E0,-7.967520356E-1,9.939739227E0,6.268403530E-1
1.528654687E0,-7.297526598E-1,9.987594604E0,8.015117049E-1
1.533617187E0,-5.431103110E-1,9.980412483E0,9.379045963E-1
1.538581250E0,-4.019385576E-1,9.901451111E0,1.100614548E0
1.543543750E0,-2.464016527E-1,9.884700775E0,1.339900613E0
1.548506250E0,-5.019204319E-2,9.889489174E0,1.399717450E0
1.553470312E0,-4.540364072E-2,9.863162994E0,1.627041936E0
1.558432812E0,5.746084207E-5,9.891883850E0,1.732319832E0
1.563396875E0,-5.736507475E-2,9.884700775E0,1.938106298E0
1.568359375E0,-1.674408913E-1,9.942132950E0,1.964423299E0
1.573321875E0,-1.722197086E-1,9.980412483E0,2.057749271E0
1.578285937E0,-1.626524776E-1,9.908634186E0,1.997923017E0
1.583248437E0,-8.847054094E-2,9.906239510E0,2.002711535E0
1.588212500E0,-2.865380608E-2,9.848807335E0,1.859145522E0
1.593175000E0,-5.975927413E-2,9.932557106E0,1.615071058E0
1.598139062E0,-1.190397050E-2,9.827268600E0,1.447572589E0
1.603101562E0,-1.076145768E-1,9.772240639E0,1.335112214E0
1.608065625E0,-1.315470189E-1,9.788990021E0,1.129325747E0
1.613028125E0,-1.937579513E-1,9.827268600E0,9.929425120E-1
1.617990625E0,-2.057193965E-1,9.884700775E0,7.680120468E-1
1.622954687E0,-1.985463500E-1,9.827268600E0,5.143703222E-1
1.627917187E0,-6.694187969E-2,9.839240074E0,3.444873095E-1
1.632879687E0,-2.865380608E-2,9.736346245E0,1.650275439E-1
1.637843750E0,8.380663395E-2,9.793779373E0,2.009118348E-1
1.642806250E0,1.555848122E-1,9.738740921E0,-2.161485329E-2
1.647770312E0,1.651520431E-1,9.693280220E0,-4.794149473E-2
1.652732812E0,2.297571748E-1,9.659780502E0,-1.556039602E-1
1.657695312E0,1.914786696E-1,9.693280220E0,-1.460367292E-1
1.662657812E0,2.082285136E-1,9.695664406E0,-3.597048670E-2
1.667621875E0,2.393339872E-1,9.707635880E0,3.820187971E-2
1.672584375E0,2.273725420E-1,9.748308182E0,2.104886323E-1
1.677548437E0,1.699404269E-1,9.726778984E0,2.152674496E-1
1.682512500E0,1.340465695E-1,9.700452805E0,2.344114929E-1
1.687475000E0,-3.583640978E-2,9.810519218E0,1.961330026E-1
1.692439062E0,-6.933607906E-2,9.798557281E0,2.296326756E-1
1.697401562E0,-1.387200505E-1,9.777029037E0,4.425921440E-1
1.702364062E0,-2.865380608E-2,9.793779373E0,5.215529203E-1
1.707328125E0,6.705679744E-2,9.786596298E0,6.220518947E-1
1.712290625E0,2.225841433E-1,9.767452240E0,6.770898700E-1
1.717254687E0,2.728336453E-1,9.753096581E0,7.680120468E-1
1.722217187E0,3.541886210E-1,9.724386215E0,7.799734473E-1
1.727181250E0,4.140053689E-1,9.726778984E0,8.565496206E-1
1.732143750E0,3.900824785E-1,9.710029602E0,9.714042544E-1
1.737107812E0,4.020439088E-1,9.678915024E0,1.038403511E0
1.742070312E0,4.857930839E-1,9.757884979E0,1.205901980E0
1.747032812E0,5.312542319E-1,9.793779373E0,1.373400211E0
1.751996875E0,5.503982306E-1,9.769846916E0,1.493043303E0
1.756959375E0,6.317532063E-1,9.808135033E0,1.591148138E0
1.761921875E0,6.556856632E-1,9.784202576E0,1.622253656E0
1.766885937E0,6.820027232E-1,9.793779373E0,1.710781574E0
1.771848437E0,7.442137003E-1,9.750701904E0,1.603109598E0
1.776812500E0,7.920785546E-1,9.738740921E0,1.698820233E0
1.781775000E0,8.183956146E-1,9.750701904E0,1.464322567E0
1.786739062E0,8.901833296E-1,9.650202751E0,1.363823533E0
1.791701562E0,8.590778708E-1,9.676529884E0,1.280074358E0
1.796664062E0,8.662509322E-1,9.676529884E0,1.241795778E0
1.801628125E0,8.853949308E-1,9.643030167E0,1.205901980E0
1.806590625E0,8.710393310E-1,9.671741486E0,1.129325747E0
1.811554687E0,8.040399551E-1,9.669347763E0,1.069509029E0
1.816517187E0,6.628587246E-1,9.762663841E0,1.036009431E0
1.821479687E0,6.102245450E-1,9.760279655E0,9.905482531E-1
1.826443750E0,6.341474056E-1,9.726778984E0,9.235489368E-1
1.831406250E0,7.298580408E-1,9.736346245E0,8.780878186E-1
1.836368750E0,7.801075578E-1,9.745914459E0,7.440891862E-1
1.841332812E0,6.508972645E-1,9.753096581E0,6.699072123E-1
1.846295312E0,5.838978887E-1,9.815307617E0,6.962338090E-1
1.851259375E0,6.030419469E-1,9.820096016E0,8.039059043E-1
1.856221875E0,5.838978887E-1,9.779414177E0,8.397997618E-1
1.861185937E0,6.030419469E-1,9.824884415E0,8.685110211E-1
1.866148437E0,5.432252288E-1,9.827268600E0,9.067991376E-1
1.871110937E0,5.264754295E-1,9.839240074E0,9.163663387E-1
1.876075000E0,4.283609986E-1,9.817702293E0,8.924434781E-1
1.881037500E0,4.068323374E-1,9.832057953E0,8.182615638E-1
1.886001562E0,3.900824785E-1,9.817702293E0,8.230499029E-1
1.890964062E0,5.049371123E-1,9.834450722E0,8.326171637E-1
1.895928125E0,5.216869712E-1,9.853595734E0,8.661168218E-1
1.900890625E0,5.767248273E-1,9.832057953E0,8.374055624E-1
1.905854687E0,5.743306875E-1,9.844018936E0,8.302229643E-1
1.910817187E0,5.982535481E-1,9.793779373E0,7.680120468E-1
1.915781250E0,5.886863470E-1,9.769846916E0,7.799734473E-1
1.920743750E0,6.413300037E-1,9.755491257E0,7.943387032E-1
1.925706250E0,7.178965807E-1,9.779414177E0,7.847618461E-1
1.930670312E0,8.495010734E-1,9.774634361E0,8.469727635E-1
1.935632812E0,8.399338126E-1,9.743529320E0,8.086943030E-1
1.940595312E0,8.112130165E-1,9.793779373E0,8.924434781E-1
1.945559375E0,7.896843553E-1,9.784202576E0,1.033615232E0
1.950521875E0,7.944631577E-1,9.815307617E0,1.083864689E0
1.955485937E0,7.872901559E-1,9.875133514E0,1.045586228E0
1.960448437E0,8.231840134E-1,9.841633797E0,9.211547375E-1
1.965410937E0,8.590778708E-1,9.772240639E0,9.259431362E-1
1.970375000E0,8.016457558E-1,9.844018936E0,8.948376179E-1
1.975337500E0,7.490020990E-1,9.824884415E0,1.024047971E0
1.980301562E0,6.820027232E-1,9.757884979E0,1.004903913E0
1.985264062E0,6.150033474E-1,9.765057564E0,1.052759290E0
1.990228125E0,5.862920880E-1,9.767452240E0,1.026442170E0
1.995190625E0,6.293590069E-1,9.848807335E0,1.038403511E0
2.000153125E0,5.695422888E-1,9.791384697E0,1.038403511E0
2.005117187E0,5.384368300E-1,9.822490692E0,1.117364407E0
2.010079687E0,5.432252288E-1,9.812912941E0,1.105402946E0
2.015043750E0,5.216869712E-1,9.784202576E0,1.112575889E0
2.020006250E0,4.618606567E-1,9.815307617E0,1.124547005E0
2.024970312E0,4.092265368E-1,9.798557281E0,1.203507662E0
2.029932812E0,4.522934258E-1,9.832057953E0,1.158046603E0
2.034895312E0,3.924766779E-1,9.820096016E0,1.191546321E0
2.039859375E0,4.283609986E-1,9.867951393E0,1.103008628E0
2.044821875E0,4.522934258E-1,9.829663277E0,1.146075726E0
2.049785937E0,4.307551980E-1,9.877518654E0,1.079076290E0
2.054748437E0,3.159005344E-1,9.858384132E0,1.002509713E0
2.059712500E0,4.068323374E-1,9.870346069E0,9.618370533E-1
2.064675000E0,3.182947338E-1,9.896661758E0,9.020106792E-1
2.069637500E0,3.326503932E-1,9.896661758E0,7.919444442E-1
2.074601562E0,3.015449345E-1,9.908634186E0,6.986184716E-1
2.079564062E0,2.776220441E-1,9.963662148E0,6.938396692E-1
2.084528125E0,2.704394460E-1,9.937344551E0,6.723014116E-1
2.089490625E0,3.206889629E-1,9.963662148E0,5.454853773E-1
2.094454687E0,3.972555101E-1,9.951700211E0,4.641303718E-1
2.099417187E0,4.522934258E-1,9.951700211E0,3.253432810E-1
2.104379687E0,5.336483717E-1,9.951700211E0,2.320173085E-1
2.109343750E0,5.336483717E-1,1.001630592E1,1.291336715E-1
2.114306250E0,4.498992264E-1,9.989988327E0,1.578449309E-1
2.119270312E0,5.073313117E-1,9.999555588E0,1.937388033E-1
2.124232812E0,4.618606567E-1,1.001391125E1,4.019098580E-1
2.129196875E0,6.293590069E-1,1.000913239E1,4.856590331E-1
2.134159375E0,6.269743443E-1,9.973237991E0,5.191587210E-1
2.139121875E0,6.293590069E-1,9.978017807E0,6.124846935E-1
2.144085937E0,6.461088061E-1,9.942132950E0,8.015117049E-1
2.149048437E0,6.676471233E-1,9.961267471E0,8.493670225E-1
2.154012500E0,7.729344964E-1,9.975632668E0,1.014471173E0
2.158975000E0,7.633576393E-1,9.963662148E0,1.081470490E0
2.163939062E0,8.112130165E-1,9.927767754E0,1.170008063E0
2.168901562E0,8.375396132E-1,9.851201057E0,1.237007499E0
2.173864062E0,8.423280716E-1,9.872738838E0,1.301612496E0
2.178828125E0,8.423280716E-1,9.848807335E0,1.313573956E0
2.183790625E0,7.681460977E-1,9.870346069E0,1.375794411E0
2.188754687E0,8.375396132E-1,9.841633797E0,1.438005328E0
2.193717187E0,7.681460977E-1,9.834450722E0,1.476293445E0
2.198681250E0,7.729344964E-1,9.853595734E0,1.399717450E0
2.203643750E0,7.490020990E-1,9.808135033E0,1.373400211E0
2.208606250E0,6.939737797E-1,9.822490692E0,1.270507097E0
2.213570312E0,7.250792384E-1,9.824884415E0,1.122152686E0
2.218532812E0,7.226849794E-1,9.738740921E0,1.021653771E0
2.223496875E0,6.508972645E-1,9.721991539E0,1.004903913E0
2.228459375E0,6.556856632E-1,9.750701904E0,7.919444442E-1
2.233423437E0,5.743306875E-1,9.750701904E0,7.393007874E-1
2.238385937E0,4.283609986E-1,9.662164688E0,5.598409176E-1
2.243348437E0,3.733326793E-1,9.721991539E0,6.005136967E-1
2.248312500E0,3.948709071E-1,9.688490868E0,5.383027196E-1
2.253275000E0,3.470060229E-1,9.712413788E0,4.401979446E-1
2.258239062E0,2.680452466E-1,9.652597427E0,3.516603410E-1
2.263201562E0,2.871892750E-1,9.633453369E0,3.157664835E-1
2.268165625E0,2.201899439E-1,9.676529884E0,2.679111660E-1
2.273128125E0,2.297571748E-1,9.638241768E0,2.080944330E-1
2.278090625E0,2.752278447E-1,9.631059647E0,2.559497356E-1
2.283054687E0,2.608722150E-1,9.578415871E0,2.726995945E-1
2.288017187E0,2.967565060E-1,9.561666489E0,2.248442620E-1
2.292981250E0,4.187937677E-1,9.583204269E0,1.817677915E-1
2.297943750E0,5.121101737E-1,9.549704552E0,1.195568517E-1
2.302907812E0,5.336483717E-1,9.523387909E0,2.080944330E-1
2.307870312E0,4.977545440E-1,9.568848610E0,1.817677915E-1
2.312832812E0,5.168985724E-1,9.523387909E0,1.698063612E-1
2.317796875E0,6.293590069E-1,9.501849174E0,2.822668254E-1
2.322759375E0,6.867911220E-1,9.434849739E0,2.798821628E-1
2.327723437E0,7.968573570E-1,9.520993233E0,3.373047113E-1
2.332685937E0,8.327512145E-1,9.475532532E0,3.277374804E-1
2.337648437E0,8.542894721E-1,9.477926254E0,4.330153167E-1
2.342612500E0,9.954611659E-1,9.544916153E0,4.401979446E-1
2.347575000E0,1.079210281E0,9.564060211E0,5.718024373E-1
2.352539062E0,1.038537741E0,9.597559929E0,7.632332444E-1
2.357501562E0,1.040931940E0,9.535348892E0,7.632332444E-1
2.362465625E0,1.107931137E0,9.580809593E0,8.063001037E-1
2.367428125E0,1.213209033E0,9.604742050E0,7.536563873E-1
2.372390625E0,1.306535006E0,9.535348892E0,6.938396692E-1
2.377354687E0,1.340034723E0,9.564060211E0,8.876550794E-1
2.382317187E0,1.337640524E0,9.578415871E0,8.397997618E-1
2.387281250E0,1.354390383E0,9.568848610E0,9.211547375E-1
2.392243750E0,1.299352407E0,9.523387909E0,9.594427943E-1
2.397207812E0,1.340034723E0,9.518598557E0,9.235489368E-1
2.402170312E0,1.313708067E0,9.523387909E0,1.012086511E0
2.407132812E0,1.296958208E0,9.602347374E0,1.117364407E0
2.412096875E0,1.246708751E0,9.621492386E0,1.040797710E0
2.417059375E0,1.141430855E0,9.640635490E0,1.086258888E0
2.422023437E0,1.021787882E0,9.568848610E0,1.047970772E0
2.426985937E0,1.002643824E0,9.635848045E0,1.031220913E0
2.431948437E0,9.117120504E-1,9.654992104E0,1.038403511E0
2.436912500E0,8.255782127E-1,9.654992104E0,9.929425120E-1
2.441875000E0,7.083293200E-1,9.769846916E0,1.036009431E0
2.446839062E0,6.126092076E-1,9.750701904E0,1.026442170E0
2.451801562E0,5.432252288E-1,9.769846916E0,1.012086511E0
2.456765625E0,4.451108277E-1,9.796163559E0,9.690100551E-1
2.461728125E0,4.116111398E-1,9.820096016E0,9.977213144E-1
2.466692187E0,2.919777036E-1,9.879913330E0,1.014471173E0
2.471654687E0,3.135063350E-1,9.865556717E0,9.642215967E-1
2.476617187E0,3.063333035E-1,9.906239510E0,1.045586228E0
2.481581250E0,2.560837865E-1,9.872738838E0,1.095826149E0
2.486543750E0,1.603731960E-1,9.994767189E0,1.033615232E0
2.491507812E0,9.098923951E-2,9.958883286E0,1.110191226E0
2.496470312E0,1.077295020E-1,1.003784370E1,1.086258888E0
2.501432812E0,5.030696467E-2,1.002348804E1,1.055153489E0
2.506396875E0,6.466259807E-2,1.009766006E1,1.033615232E0
2.511359375E0,6.227797270E-2,9.968450546E0,1.045586228E0
2.516323437E0,1.101237014E-1,1.004980564E1,9.761926532E-1
2.521285937E0,1.747288406E-1,9.987594604E0,9.211547375E-1
2.526250000E0,1.986517012E-1,9.978017807E0,9.785868526E-1
2.531212500E0,3.302561939E-1,9.956489563E0,9.283373356E-1
2.536176562E0,4.283609986E-1,9.906239510E0,9.498660564E-1
2.541139062E0,5.288599730E-1,9.956489563E0,9.402987957E-1
2.546101562E0,5.958592892E-1,9.915806770E0,9.929425120E-1
2.551065625E0,7.178965807E-1,9.999555588E0,9.402987957E-1
2.556028125E0,8.662509322E-1,9.951700211E0,8.709052205E-1
2.560992187E0,8.566836715E-1,9.934949875E0,7.536563873E-1
2.565954687E0,8.782123327E-1,9.889489174E0,7.823676467E-1
2.570917187E0,9.117120504E-1,9.896661758E0,7.153682709E-1
2.575881250E0,9.739325047E-1,9.896661758E0,8.086943030E-1
2.580843750E0,9.834997654E-1,9.858384132E0,8.876550794E-1
2.585807812E0,9.811055064E-1,9.875133514E0,1.009692311E0
2.590770312E0,9.571827054E-1,9.784202576E0,1.081470490E0
2.595732812E0,9.284618497E-1,9.827268600E0,1.103008628E0
2.600695312E0,8.590778708E-1,9.810519218E0,1.174796462E0
2.605659375E0,7.442137003E-1,9.808135033E0,1.378179073E0
2.610623437E0,7.178965807E-1,9.779414177E0,1.514572024E0
2.615585937E0,7.274637818E-1,9.820096016E0,1.607897997E0
2.620550000E0,6.939737797E-1,9.812912941E0,1.706002831E0
2.625512500E0,6.389358044E-1,9.820096016E0,1.703608632E0
2.630475000E0,5.527924299E-1,9.827268600E0,1.603109598E0
2.635439062E0,4.259763658E-1,9.769846916E0,1.545677543E0
2.640401562E0,3.996497095E-1,9.798557281E0,1.471505165E0
2.645365625E0,2.991507351E-1,9.820096016E0,1.416467190E0
2.650328125E0,2.967565060E-1,9.810519218E0,1.205901980E0
2.655292187E0,2.465070039E-1,9.805740356E0,1.064720750E0
2.660253125E0,1.364407688E-1,9.815307617E0,9.211547375E-1
2.665217187E0,6.227797270E-2,9.875133514E0,8.158673048E-1
2.670181250E0,-1.669237576E-2,9.997160912E0,6.555515528E-1
2.675143750E0,-8.608591557E-2,9.906239510E0,4.593419433E-1
2.680107812E0,-2.057193965E-1,9.915806770E0,4.401979446E-1
2.685070312E0,-2.224692255E-1,9.956489563E0,2.966320217E-1
2.690034375E0,-2.272576243E-1,9.942132950E0,2.822668254E-1
2.694996875E0,-2.535746992E-1,9.973237991E0,1.506623179E-1
2.699959375E0,-2.822955251E-1,9.980412483E0,1.985176206E-1
2.704923437E0,-3.349392414E-1,9.975632668E0,9.323979169E-2
2.709885937E0,-3.708235621E-1,9.927767754E0,2.415941060E-1
2.714850000E0,-3.445064723E-1,9.911018372E0,3.181606829E-1
2.719812500E0,-3.923617899E-1,9.920595169E0,4.258422852E-1
2.724776562E0,-3.923617899E-1,9.865556717E0,4.928416312E-1
2.729739062E0,-2.918627560E-1,9.860768318E0,5.741965771E-1
2.734701562E0,-1.770081222E-1,9.889489174E0,5.239470601E-1
2.739665625E0,-1.554698795E-1,9.896661758E0,6.483689547E-1
2.744628125E0,5.746084207E-5,9.872738838E0,6.100904346E-1
2.749592187E0,1.005468965E-1,9.832057953E0,6.435901523E-1
2.754554687E0,1.005468965E-1,9.781807899E0,5.933406353E-1
2.759517187E0,1.220851392E-1,9.772240639E0,7.751946449E-1
2.764481250E0,2.297571748E-1,9.798557281E0,7.823676467E-1
2.769443750E0,3.541886210E-1,9.765057564E0,8.876550794E-1
2.774407812E0,4.498992264E-1,9.700452805E0,8.804724813E-1
2.779368750E0,5.288599730E-1,9.726778984E0,8.613380194E-1
2.784334375E0,4.786105156E-1,9.650202751E0,8.350113630E-1
2.789296875E0,5.336483717E-1,9.657385826E0,8.685110211E-1
2.794260937E0,5.934747458E-1,9.638241768E0,9.044048786E-1
2.799223437E0,6.054361463E-1,9.647809982E0,1.083864689E0
2.804185937E0,7.226849794E-1,9.626279831E0,1.134114146E0
2.809150000E0,7.418290377E-1,9.652597427E0,1.196325064E0
2.814110937E0,7.466078401E-1,9.690885544E0,1.354256272E0
2.819076562E0,6.939737797E-1,9.657385826E0,1.411678791E0
2.824037500E0,7.011467218E-1,9.662164688E0,1.471505165E0
2.829003125E0,8.830007315E-1,9.659780502E0,1.485860705E0
2.833964062E0,9.978554249E-1,9.635848045E0,1.399717450E0
2.838928125E0,1.069643140E0,9.690885544E0,1.385361671E0
2.843890625E0,1.107931137E0,9.678915024E0,1.208296180E0
2.848854687E0,1.112710118E0,9.717203140E0,1.148469806E0
2.853818750E0,1.055287480E0,9.712413788E0,1.004903913E0
2.858781250E0,9.667499661E-1,9.707635880E0,9.426929951E-1
2.863743750E0,8.423280716E-1,9.738740921E0,8.445882201E-1
2.868707812E0,8.303570747E-1,9.760279655E0,7.058010697E-1
2.873670312E0,7.202907801E-1,9.800951958E0,6.914454103E-1
2.878632812E0,6.413300037E-1,9.760279655E0,5.526583791E-1
2.883595312E0,5.743306875E-1,9.808135033E0,5.167644620E-1
2.888559375E0,5.288599730E-1,9.851201057E0,4.760918021E-1
2.893521875E0,5.168985724E-1,9.853595734E0,5.646198392E-1
2.898485937E0,5.575808883E-1,9.846412659E0,5.311201215E-1
2.903450000E0,5.456098914E-1,9.887095451E0,5.430911183E-1
2.908412500E0,5.432252288E-1,9.822490692E0,5.239470601E-1
2.913375000E0,4.953603148E-1,9.853595734E0,5.478699207E-1
2.918339062E0,3.852941096E-1,9.870346069E0,5.670139790E-1
2.923303125E0,2.991507351E-1,9.896661758E0,7.058010697E-1
2.928265625E0,2.249783427E-1,9.927767754E0,7.871560454E-1
2.933228125E0,1.268735379E-1,9.958883286E0,8.996165395E-1
2.938190625E0,8.859504014E-2,9.946911812E0,1.067114830E0
2.943154687E0,4.552813992E-2,9.985199928E0,1.186757922E0
2.948117187E0,9.576806426E-2,1.003066158E1,1.308795214E0
2.953081250E0,1.460079998E-1,1.001391125E1,1.411678791E0
2.958045312E0,1.771230400E-1,9.994767189E0,1.521754622E0
2.963007812E0,2.106227130E-1,1.001151752E1,1.524148822E0
2.967970312E0,2.345455736E-1,9.985199928E0,1.629426599E0
2.972934375E0,2.871892750E-1,9.982805252E0,1.519360304E0
2.977896875E0,3.972555101E-1,9.975632668E0,1.519360304E0
2.982859375E0,5.240811706E-1,9.978017807E0,1.375794411E0
2.987823437E0,5.025429130E-1,9.968450546E0,1.258545637E0
2.992785937E0,5.910804868E-1,9.992383003E0,1.201113582E0
2.997750000E0,6.580798626E-1,9.889489174E0,1.093441486E0
3.002712500E0,7.250792384E-1,9.863162994E0,9.977213144E-1
3.007676562E0,7.202907801E-1,9.875133514E0,9.761926532E-1
3.012639062E0,7.370406389E-1,9.860768318E0,9.546543956E-1
3.017603125E0,7.872901559E-1,9.851201057E0,9.953366518E-1
3.022565625E0,8.566836715E-1,9.832057953E0,9.929425120E-1
3.027528125E0,8.088283539E-1,9.803345680E0,9.618370533E-1
3.032492187E0,8.423280716E-1,9.777029037E0,9.307219982E-1
3.037454687E0,8.112130165E-1,9.729164124E0,1.088653088E0
3.042418750E0,7.729344964E-1,9.736346245E0,1.107797146E0
3.047381250E0,7.681460977E-1,9.791384697E0,1.155652523E0
3.052343750E0,7.370406389E-1,9.710029602E0,1.198719382E0
3.057307812E0,6.532914639E-1,9.767452240E0,1.282468557E0
3.062270312E0,6.078303456E-1,9.805740356E0,1.294439435E0
3.067232812E0,5.360426307E-1,9.745914459E0,1.268112898E0
3.072196875E0,5.503982306E-1,9.731558800E0,1.253757238E0
3.077159375E0,4.977545440E-1,9.729164124E0,1.150864005E0
3.082121875E0,3.661500514E-1,9.705241203E0,1.088653088E0
3.087085937E0,1.914786696E-1,9.779414177E0,1.069509029E0
3.092048437E0,2.249783427E-1,9.786596298E0,1.021653771E0
3.097012500E0,1.053352952E-1,9.805740356E0,9.259431362E-1
3.101975000E0,8.620083332E-2,9.784202576E0,7.369065285E-1
3.106939062E0,4.313393682E-2,9.808135033E0,6.555515528E-1
3.111903125E0,-5.258624628E-2,9.882307053E0,5.167644620E-1
3.116864062E0,-6.694187969E-2,9.879913330E0,3.947368264E-1
3.121828125E0,-5.258624628E-2,9.829663277E0,3.253432810E-1
3.126790625E0,-1.195855886E-1,9.872738838E0,3.684101999E-1
3.131754687E0,-1.650466919E-1,9.851201057E0,3.588429689E-1
3.136717187E0,-1.937579513E-1,9.832057953E0,3.349105120E-1
3.141681250E0,-1.698351055E-1,9.920595169E0,3.588429689E-1
3.146643750E0,-1.937579513E-1,9.911018372E0,3.660160005E-1
3.151607812E0,-1.124029830E-1,9.920595169E0,2.679111660E-1
3.156570312E0,-1.794023216E-1,9.930162430E0,2.822668254E-1
3.161532812E0,-1.889695525E-1,9.961267471E0,2.631323636E-1
3.166496875E0,-2.368248552E-1,9.989988327E0,3.851599991E-1
3.171459375E0,-1.913637519E-1,9.973237991E0,4.904474318E-1
3.176423437E0,-1.817965209E-1,9.951700211E0,5.406969786E-1
3.181385937E0,-1.841907203E-1,9.966055870E0,6.699072123E-1
3.186348437E0,-1.459026486E-1,1.001870060E1,7.321181893E-1
3.191312500E0,-1.530852467E-1,9.989988327E0,7.393007874E-1
3.196275000E0,-1.028357521E-1,9.997160912E0,8.206557035E-1
3.201239062E0,4.845864139E-3,1.000913239E1,8.661168218E-1
3.206201562E0,-2.386540174E-2,9.954094887E0,9.355103970E-1
3.211165625E0,2.159569971E-2,9.946911812E0,9.714042544E-1
3.216128125E0,1.388349682E-1,9.922988892E0,1.059941769E0
3.221092187E0,1.340465695E-1,9.920595169E0,1.196325064E0
3.226054687E0,2.752278447E-1,9.844018936E0,1.071903229E0
3.231018750E0,2.895835042E-1,9.841633797E0,1.103008628E0
3.235981250E0,3.182947338E-1,9.796163559E0,1.038403511E0
3.240943750E0,2.632568479E-1,9.798557281E0,9.977213144E-1
3.245907812E0,3.063333035E-1,9.779414177E0,1.050364971E0
3.250870312E0,4.259763658E-1,9.748308182E0,9.666158557E-1
3.255832812E0,4.881873131E-1,9.748308182E0,8.541554213E-1
3.260796875E0,5.767248273E-1,9.748308182E0,7.536563873E-1
3.265759375E0,5.958592892E-1,9.733952522E0,7.728003860E-1
3.270723437E0,5.312542319E-1,9.729164124E0,5.885522366E-1
3.275685937E0,5.527924299E-1,9.743529320E0,6.579458117E-1
3.280650000E0,6.485030651E-1,9.681308746E0,6.244460940E-1
3.285612500E0,6.413300037E-1,9.721991539E0,6.172634959E-1
3.290575000E0,6.748297215E-1,9.666953087E0,5.885522366E-1
3.295539062E0,6.987525821E-1,9.693280220E0,5.263413191E-1
3.300501562E0,6.150033474E-1,9.662164688E0,5.406969786E-1
3.305465625E0,6.317532063E-1,9.647809982E0,3.612371385E-1
3.310428125E0,5.910804868E-1,9.635848045E0,3.684101999E-1
3.315392187E0,6.293590069E-1,9.671741486E0,2.296326756E-1
3.320354687E0,6.939737797E-1,9.619097710E0,3.420931101E-1
3.325317187E0,6.197918057E-1,9.676529884E0,3.636313379E-1
3.330281250E0,5.838978887E-1,9.698058128E0,3.755927682E-1
3.335243750E0,4.953603148E-1,9.635848045E0,4.952358305E-1
3.340207812E0,4.570818543E-1,9.638241768E0,5.287354589E-1
3.345170312E0,4.594760537E-1,9.693280220E0,6.220518947E-1
3.350134375E0,4.283609986E-1,9.662164688E0,7.010126710E-1
3.355096875E0,5.001487136E-1,9.621492386E0,7.273392677E-1
3.360059375E0,3.637558520E-1,9.671741486E0,7.536563873E-1
3.365023437E0,3.111217320E-1,9.664558411E0,7.943387032E-1
3.369985937E0,2.871892750E-1,9.640635490E0,7.512621880E-1
3.374950000E0,2.130073458E-1,9.707635880E0,7.393007874E-1
3.379912500E0,2.417281866E-1,9.721991539E0,7.823676467E-1
3.384876562E0,1.244793311E-1,9.726778984E0,8.182615638E-1
3.389839062E0,1.101237014E-1,9.750701904E0,7.560505867E-1
3.394801562E0,5.270116776E-2,9.820096016E0,8.876550794E-1
3.399765625E0,9.338344634E-2,9.846412659E0,9.091932774E-1
3.404728125E0,1.077295020E-1,9.865556717E0,1.002509713E0
3.409692187E0,1.053352952E-1,9.824884415E0,9.953366518E-1
3.414654687E0,1.316523552E-1,9.903844833E0,1.074297428E0
3.419617187E0,1.101237014E-1,9.896661758E0,1.095826149E0
3.424581250E0,1.125083268E-1,9.918201447E0,1.074297428E0
3.429543750E0,9.815269709E-2,9.951700211E0,1.160440803E0
3.434507812E0,1.388349682E-1,9.853595734E0,1.244190097E0
3.439470312E0,1.340465695E-1,9.944517136E0,1.215469122E0
3.444434375E0,1.555848122E-1,1.001630592E1,1.227440238E0
3.449396875E0,1.938728839E-1,1.001391125E1,1.330323815E0
3.454359375E0,2.369397730E-1,9.961267471E0,1.284862638E0
3.459323437E0,2.417281866E-1,9.968450546E0,1.258545637E0
3.464285937E0,2.800066769E-1,9.987594604E0,1.208296180E0
3.469250000E0,3.063333035E-1,1.000434399E1,1.117364407E0
3.474212500E0,3.494002223E-1,1.001151752E1,1.055153489E0
3.479176562E0,2.824008763E-1,1.000673866E1,1.052759290E0
3.484139062E0,2.800066769E-1,9.939739227E0,1.009692311E0
3.489101562E0,2.704394460E-1,1.004980564E1,1.028836250E0
3.494065625E0,2.991507351E-1,1.006416130E1,1.043192029E0
3.499028125E0,4.235821664E-1,1.006894875E1,1.114970207E0
3.503992187E0,4.163995683E-1,1.007134342E1,1.162825465E0
3.508954687E0,3.972555101E-1,1.009048748E1,1.143691063E0
3.513918750E0,4.044381380E-1,1.011201668E1,1.184363604E0
3.518881250E0,4.187937677E-1,1.009766006E1,1.193940520E0
3.523843750E0,3.948709071E-1,1.004263210E1,1.275295496E0
3.528807812E0,3.087275028E-1,1.006894875E1,1.315968156E0
3.533770312E0,3.637558520E-1,1.003066158E1,1.308795214E0
3.538734375E0,3.494002223E-1,1.005698872E1,1.402111530E0
3.543696875E0,2.704394460E-1,1.004263210E1,1.399717450E0
3.548660937E0,2.345455736E-1,1.007134342E1,1.438005328E0
3.553623437E0,1.986517012E-1,1.005459404E1,1.411678791E0
3.558585937E0,2.010459006E-1,1.004980564E1,1.476293445E0
3.563550000E0,2.369397730E-1,9.992383003E0,1.469110847E0
3.568512500E0,2.441223711E-1,1.000195026E1,1.435611248E0
3.573476562E0,2.297571748E-1,1.000673866E1,1.347073555E0
3.578439062E0,2.417281866E-1,1.000913239E1,1.186757922E0
3.583401562E0,3.278715611E-1,9.882307053E0,1.057547569E0
3.588365625E0,3.398329914E-1,9.875133514E0,9.594427943E-1
3.593328125E0,4.211879671E-1,9.851201057E0,7.919444442E-1
3.598292187E0,3.398329914E-1,9.832057953E0,7.297335267E-1
3.603254687E0,3.422271907E-1,9.788990021E0,7.177625299E-1
3.608218750E0,3.446213901E-1,9.860768318E0,6.364075541E-1
3.613181250E0,3.159005344E-1,9.798557281E0,5.694081783E-1
3.618145312E0,2.943718731E-1,9.788990021E0,5.813696384E-1
3.623106250E0,2.345455736E-1,9.750701904E0,5.119856596E-1
3.628070312E0,1.819018722E-1,9.788990021E0,5.454853773E-1
3.633034375E0,1.962575018E-1,9.798557281E0,6.124846935E-1
3.637996875E0,1.890844703E-1,9.765057564E0,6.172634959E-1
3.642960937E0,2.441223711E-1,9.748308182E0,4.976204634E-1
3.647921875E0,2.201899439E-1,9.707635880E0,5.263413191E-1
3.652887500E0,2.273725420E-1,9.690885544E0,5.670139790E-1
3.657850000E0,1.603731960E-1,9.666953087E0,4.880532324E-1
3.662812500E0,3.355713189E-2,9.671741486E0,5.215529203E-1
3.667776562E0,-1.190397050E-2,9.686098099E0,6.292344928E-1
3.672739062E0,3.834553435E-2,9.702846527E0,7.584447861E-1
3.677703125E0,7.240065839E-3,9.719596863E0,8.565496206E-1
3.682665625E0,2.451662440E-3,9.678915024E0,9.474717975E-1
3.687628125E0,9.815269709E-2,9.702846527E0,1.014471173E0
3.692592187E0,8.859504014E-2,9.748308182E0,9.857599139E-1
3.697554687E0,1.172967330E-1,9.686098099E0,1.012086511E0
3.702518750E0,1.101237014E-1,9.681308746E0,1.079076290E0
3.707481250E0,1.962575018E-1,9.719596863E0,1.002509713E0
3.712445312E0,2.225841433E-1,9.698058128E0,9.474717975E-1
3.717407812E0,2.225841433E-1,9.645415306E0,8.780878186E-1
3.722371875E0,1.938728839E-1,9.693280220E0,9.426929951E-1
3.727334375E0,2.010459006E-1,9.712413788E0,9.307219982E-1
3.732296875E0,2.273725420E-1,9.738740921E0,8.565496206E-1
3.737260937E0,2.321513742E-1,9.779414177E0,8.493670225E-1
3.742223437E0,2.082285136E-1,9.855990410E0,9.307219982E-1
3.747187500E0,2.130073458E-1,9.863162994E0,9.474717975E-1
3.752150000E0,2.249783427E-1,9.812912941E0,9.833656549E-1
3.757114062E0,1.819018722E-1,9.853595734E0,1.038403511E0
3.762076562E0,1.603731960E-1,9.867951393E0,1.036009431E0
3.767039062E0,1.220851392E-1,9.925383568E0,1.083864689E0
3.772003125E0,1.220851392E-1,9.879913330E0,1.098220348E0
3.776964062E0,7.423940301E-2,9.973237991E0,1.095826149E0
3.781929687E0,1.244793311E-1,9.903844833E0,1.026442170E0
3.786890625E0,1.005468965E-1,9.949306488E0,1.093441486E0
3.791854687E0,1.101237014E-1,9.920595169E0,1.016865373E0
3.796818750E0,1.364407688E-1,9.865556717E0,1.009692311E0
3.801781250E0,1.842960715E-1,9.939739227E0,1.019259572E0
3.806745312E0,1.699404269E-1,9.853595734E0,9.618370533E-1
3.811707812E0,2.345455736E-1,9.815307617E0,9.187605381E-1
3.816670312E0,3.087275028E-1,9.808135033E0,9.355103970E-1
3.821634375E0,2.800066769E-1,9.805740356E0,9.115875363E-1
3.826596875E0,3.063333035E-1,9.786596298E0,1.047970772E0
3.831560937E0,3.541886210E-1,9.750701904E0,1.093441486E0
3.836523437E0,3.900824785E-1,9.867951393E0,1.012086511E0
3.841487500E0,4.905815125E-1,9.815307617E0,1.019259572E0
3.846450000E0,5.623596907E-1,9.822490692E0,9.163663387E-1
3.851414062E0,6.126092076E-1,9.781807899E0,9.259431362E-1
3.856376562E0,5.815037489E-1,9.721991539E0,8.613380194E-1
3.861339062E0,6.724354625E-1,9.729164124E0,8.397997618E-1
3.866303125E0,7.107139826E-1,9.721991539E0,8.326171637E-1
3.871265625E0,8.088283539E-1,9.635848045E0,8.637226820E-1
3.876229687E0,8.782123327E-1,9.678915024E0,9.498660564E-1
3.881192187E0,9.045389891E-1,9.767452240E0,1.059941769E0
3.886154687E0,9.212888479E-1,9.688490868E0,1.227440238E0
3.891118750E0,9.308559895E-1,9.736346245E0,1.356650352E0
3.896081250E0,8.853949308E-1,9.693280220E0,1.452361107E0
3.901045312E0,7.944631577E-1,9.750701904E0,1.641397715E0
3.906007812E0,7.753286958E-1,9.736346245E0,1.660541654E0
3.910971875E0,7.346464396E-1,9.750701904E0,1.691647053E0
3.915934375E0,6.748297215E-1,9.757884979E0,1.655753255E0
3.920898437E0,6.317532063E-1,9.726778984E0,1.610292196E0
3.925860937E0,6.102245450E-1,9.729164124E0,1.519360304E0
3.930823437E0,5.862920880E-1,9.760279655E0,1.533716083E0
3.935787500E0,5.216869712E-1,9.767452240E0,1.454755306E0
3.940750000E0,4.929757118E-1,9.786596298E0,1.416467190E0
3.945714062E0,4.881873131E-1,9.741134644E0,1.272901297E0
3.950676562E0,4.642548561E-1,9.793779373E0,1.129325747E0
3.955639062E0,4.594760537E-1,9.793779373E0,1.074297428E0
3.960603125E0,4.140053689E-1,9.755491257E0,9.594427943E-1
3.965565625E0,4.140053689E-1,9.808135033E0,7.895502448E-1
3.970529687E0,3.709384501E-1,9.815307617E0,8.374055624E-1
3.975492187E0,3.278715611E-1,9.767452240E0,7.393007874E-1
3.980456250E0,4.068323374E-1,9.810519218E0,6.268403530E-1
3.985418750E0,3.852941096E-1,9.832057953E0,7.153682709E-1
3.990381250E0,3.685442507E-1,9.769846916E0,8.015117049E-1
3.995345312E0,4.283609986E-1,9.786596298E0,8.996165395E-1
4.000307812E0,4.068323374E-1,9.741134644E0,8.948376179E-1
4.005271875E0,4.187937677E-1,9.769846916E0,1.004903913E0
4.010234375E0,4.116111398E-1,9.777029037E0,1.012086511E0
4.015198437E0,4.211879671E-1,9.791384697E0,1.153258204E0
4.020160937E0,4.690432847E-1,9.757884979E0,1.296824098E0
4.025123437E0,4.283609986E-1,9.798557281E0,1.342294812E0
4.030087500E0,3.996497095E-1,9.781807899E0,1.344689012E0
4.035050000E0,3.637558520E-1,9.784202576E0,1.457149386E0
4.040014062E0,4.259763658E-1,9.755491257E0,1.500216365E0
4.044976562E0,4.140053689E-1,9.767452240E0,1.469110847E0
4.049940625E0,4.211879671E-1,9.769846916E0,1.485860705E0
4.054903125E0,4.259763658E-1,9.762663841E0,1.447572589E0
4.059865625E0,4.833988845E-1,9.726778984E0,1.505004764E0
4.064828125E0,4.666490853E-1,9.738740921E0,1.418861270E0
4.069790625E0,3.517944217E-1,9.733952522E0,1.363823533E0
4.074754687E0,3.063333035E-1,9.721991539E0,1.174796462E0
4.079717187E0,2.943718731E-1,9.757884979E0,1.062336087E0
4.084681250E0,3.135063350E-1,9.721991539E0,1.014471173E0
4.089645312E0,2.776220441E-1,9.710029602E0,9.187605381E-1
4.094607812E0,3.135063350E-1,9.738740921E0,8.852608800E-1
4.099571875E0,3.015449345E-1,9.698058128E0,7.608389854E-1
4.104534375E0,2.489012182E-1,9.705241203E0,7.560505867E-1
4.109496875E0,2.584780157E-1,9.714808464E0,7.081953287E-1
4.114459375E0,2.656510174E-1,9.707635880E0,5.789849758E-1
4.119423437E0,2.728336453E-1,9.731558800E0,5.933406353E-1
4.124387500E0,3.135063350E-1,9.710029602E0,4.856590331E-1
4.129350000E0,3.828999102E-1,9.669347763E0,5.000146627E-1
4.134312500E0,4.857930839E-1,9.762663841E0,5.646198392E-1
4.139276562E0,4.905815125E-1,9.779414177E0,5.287354589E-1
4.144240625E0,6.030419469E-1,9.750701904E0,6.029078960E-1
4.149201562E0,6.341474056E-1,9.688490868E0,7.201567292E-1
4.154165625E0,6.078303456E-1,9.681308746E0,7.536563873E-1
4.159128125E0,6.485030651E-1,9.676529884E0,8.876550794E-1
4.164090625E0,6.508972645E-1,9.753096581E0,9.426929951E-1
4.169054687E0,6.843969226E-1,9.671741486E0,1.093441486E0
4.174017187E0,6.508972645E-1,9.683703423E0,1.265718579E0
4.178981250E0,6.197918057E-1,9.745914459E0,1.272901297E0
4.183945312E0,7.155023813E-1,9.695664406E0,1.394928932E0
4.188907812E0,6.413300037E-1,9.755491257E0,1.428428531E0
4.193870312E0,6.796085238E-1,9.745914459E0,1.483466506E0
4.198834375E0,6.389358044E-1,9.750701904E0,1.469110847E0
4.203796875E0,6.293590069E-1,9.724386215E0,1.442793846E0
4.208760937E0,6.126092076E-1,9.808135033E0,1.438005328E0
4.213725000E0,6.867911220E-1,9.755491257E0,1.335112214E0
4.218685937E0,6.532914639E-1,9.769846916E0,1.241795778E0
4.223650000E0,6.820027232E-1,9.777029037E0,1.210690260E0
4.228612500E0,6.389358044E-1,9.786596298E0,1.083864689E0
4.233576562E0,7.298580408E-1,9.788990021E0,1.036009431E0
4.238539062E0,6.700412631E-1,9.767452240E0,9.522601962E-1
4.243503125E0,6.437242627E-1,9.815307617E0,9.044048786E-1
4.248465625E0,6.030419469E-1,9.827268600E0,9.402987957E-1
4.253429687E0,5.910804868E-1,9.834450722E0,9.139720798E-1
4.258392187E0,6.628587246E-1,9.836845398E0,9.690100551E-1
4.263354687E0,6.628587246E-1,9.870346069E0,1.031220913E0
4.268317187E0,6.867911220E-1,9.875133514E0,1.062336087E0
4.273281250E0,6.413300037E-1,9.887095451E0,1.088653088E0
4.278245312E0,6.461088061E-1,9.918201447E0,1.124547005E0
4.283207812E0,5.838978887E-1,9.884700775E0,1.095826149E0
4.288170312E0,6.054361463E-1,9.951700211E0,1.100614548E0
4.293134375E0,6.389358044E-1,9.915806770E0,1.181969523E0
4.298096875E0,7.202907801E-1,9.877518654E0,1.114970207E0
4.303059375E0,7.011467218E-1,9.908634186E0,1.174796462E0
4.308023437E0,6.820027232E-1,9.846412659E0,1.126941204E0
4.312985937E0,6.532914639E-1,9.925383568E0,1.150864005E0
4.317950000E0,6.915795207E-1,9.899056435E0,1.201113582E0
4.322912500E0,7.418290377E-1,9.884700775E0,1.155652523E0
4.327876562E0,7.059351802E-1,9.824884415E0,1.189152122E0
4.332839062E0,6.628587246E-1,9.817702293E0,1.193940520E0
4.337803125E0,6.628587246E-1,9.848807335E0,1.282468557E0
4.342767187E0,5.934747458E-1,9.870346069E0,1.349467874E0
4.347729687E0,6.389358044E-1,9.827268600E0,1.287256956E0
4.352692187E0,6.102245450E-1,9.800951958E0,1.390150189E0
4.357656250E0,5.886863470E-1,9.777029037E0,1.351862073E0
4.362618750E0,5.575808883E-1,9.798557281E0,1.311189294E0
4.367581250E0,5.432252288E-1,9.822490692E0,1.213074923E0
4.372545312E0,4.857930839E-1,9.774634361E0,1.160440803E0
4.377509375E0,4.714374840E-1,9.748308182E0,1.146075726E0
4.382471875E0,4.355435967E-1,9.772240639E0,1.055153489E0
4.387434375E0,4.140053689E-1,9.796163559E0,1.134114146E0
4.392396875E0,4.403319955E-1,9.772240639E0,1.045586228E0
4.397360937E0,4.427261949E-1,9.774634361E0,9.618370533E-1
4.402325000E0,3.709384501E-1,9.777029037E0,9.857599139E-1
4.407287500E0,3.757268786E-1,9.772240639E0,9.737984538E-1
4.412250000E0,3.541886210E-1,9.793779373E0,9.857599139E-1
4.417212500E0,3.709384501E-1,9.733952522E0,9.259431362E-1
4.422176562E0,2.704394460E-1,9.743529320E0,8.374055624E-1
4.427139062E0,1.699404269E-1,9.779414177E0,8.039059043E-1
4.432103125E0,1.244793311E-1,9.832057953E0,8.230499029E-1
4.437065625E0,1.316523552E-1,9.791384697E0,8.350113630E-1
4.442028125E0,1.340465695E-1,9.808135033E0,8.804724813E-1
4.446992187E0,1.388349682E-1,9.810519218E0,8.804724813E-1
4.451956250E0,1.172967330E-1,9.800951958E0,9.091932774E-1
4.456918750E0,8.380663395E-2,9.796163559E0,9.020106792E-1
4.461881250E0,1.292581707E-1,9.803345680E0,9.570485950E-1
4.466845312E0,6.466259807E-2,9.796163559E0,1.014471173E0
4.471807812E0,1.053352952E-1,9.788990021E0,9.642215967E-1
4.476770312E0,5.270116776E-2,9.815307617E0,9.977213144E-1
4.481734375E0,4.073973373E-2,9.822490692E0,1.110191226E0
4.486696875E0,7.184520364E-2,9.815307617E0,1.095826149E0
4.491660937E0,7.902780920E-2,9.805740356E0,1.129325747E0
4.496623437E0,1.460079998E-1,9.767452240E0,1.160440803E0
4.501587500E0,1.890844703E-1,9.791384697E0,1.076691628E0
4.506550000E0,2.321513742E-1,9.781807899E0,1.028836250E0
4.511512500E0,2.512954175E-1,9.755491257E0,1.038403511E0
4.516476562E0,3.206889629E-1,9.760279655E0,1.019259572E0
4.521439062E0,3.972555101E-1,9.796163559E0,9.714042544E-1
4.526403125E0,4.068323374E-1,9.808135033E0,1.026442170E0
4.531365625E0,3.805056810E-1,9.829663277E0,9.905482531E-1
4.536328125E0,4.187937677E-1,9.872738838E0,1.095826149E0
4.541292187E0,4.116111398E-1,9.846412659E0,1.040797710E0
4.546254687E0,3.733326793E-1,9.860768318E0,1.021653771E0
4.551218750E0,3.685442507E-1,9.899056435E0,1.074297428E0
4.556181250E0,3.422271907E-1,9.915806770E0,1.138902545E0
4.561145312E0,3.206889629E-1,9.889489174E0,1.189152122E0
4.566107812E0,2.704394460E-1,9.978017807E0,1.198719382E0
4.571071875E0,1.819018722E-1,9.961267471E0,1.189152122E0
4.576034375E0,1.244793311E-1,9.992383003E0,1.299218416E0
4.580996875E0,7.184520364E-2,1.004741096E1,1.402111530E0
4.585960937E0,1.029410958E-1,9.934949875E0,1.387755871E0
4.590923437E0,7.240065839E-3,9.985199928E0,1.409294248E0
4.595887500E0,9.634267539E-3,9.978017807E0,1.406899929E0
4.600850000E0,-1.669237576E-2,9.932557106E0,1.337506413E0
4.605812500E0,1.202846877E-2,9.927767754E0,1.232218981E0
4.610776562E0,1.029410958E-1,9.908634186E0,1.239401579E0
4.615739062E0,5.988377333E-2,9.846412659E0,1.138902545E0
4.620703125E0,1.268735379E-1,9.788990021E0,1.052759290E0
4.625665625E0,9.338344634E-2,9.817702293E0,1.009692311E0
4.630629687E0,1.149025261E-1,9.796163559E0,9.355103970E-1
4.635592187E0,2.130073458E-1,9.765057564E0,9.426929951E-1
4.640554687E0,2.393339872E-1,9.724386215E0,7.871560454E-1
4.645518750E0,2.225841433E-1,9.748308182E0,7.680120468E-1
4.650481250E0,2.512954175E-1,9.733952522E0,6.483689547E-1
4.655445312E0,2.201899439E-1,9.755491257E0,7.321181893E-1
4.660407812E0,2.512954175E-1,9.769846916E0,7.823676467E-1
4.665371875E0,2.297571748E-1,9.748308182E0,7.775887847E-1
4.670334375E0,2.369397730E-1,9.695664406E0,7.967232466E-1
4.675296875E0,2.369397730E-1,9.724386215E0,7.799734473E-1
4.680260937E0,1.842960715E-1,9.760279655E0,9.139720798E-1
4.685223437E0,1.077295020E-1,9.788990021E0,9.331161380E-1
4.690187500E0,2.177957445E-1,9.757884979E0,1.019259572E0
4.695150000E0,1.938728839E-1,9.820096016E0,9.546543956E-1
4.700114062E0,1.268735379E-1,9.805740356E0,9.426929951E-1
4.705076562E0,1.053352952E-1,9.777029037E0,9.833656549E-1
4.710039062E0,1.699404269E-1,9.800951958E0,9.618370533E-1
4.715003125E0,1.101237014E-1,9.841633797E0,9.618370533E-1
4.719965625E0,7.184520364E-2,9.805740356E0,1.002509713E0
4.724929687E0,4.073973373E-2,9.872738838E0,1.033615232E0
4.729892187E0,1.441309415E-2,9.832057953E0,1.067114830E0
4.734856250E0,-4.721365869E-3,9.870346069E0,1.052759290E0
4.739818750E0,-2.336740959E-3,9.853595734E0,1.071903229E0
4.744781250E0,-3.344221041E-2,9.810519218E0,1.103008628E0
4.749745312E0,4.073973373E-2,9.800951958E0,9.929425120E-1
4.754707812E0,1.202846877E-2,9.903844833E0,9.905482531E-1
4.759671875E0,1.202846877E-2,9.839240074E0,1.026442170E0
4.764634375E0,4.552813992E-2,9.805740356E0,9.761926532E-1
4.769598437E0,2.638410218E-2,9.834450722E0,9.714042544E-1
4.774560937E0,-5.258624628E-2,9.786596298E0,9.737984538E-1
4.779523437E0,-6.694187969E-2,9.887095451E0,9.020106792E-1
4.784487500E0,-7.172070444E-2,9.867951393E0,9.522601962E-1
4.789450000E0,-4.721365869E-3,9.875133514E0,9.570485950E-1
4.794414062E0,-3.822103515E-2,9.860768318E0,9.690100551E-1
4.799376562E0,-6.215347722E-2,9.844018936E0,9.809715152E-1
4.804340625E0,-7.890331000E-2,9.899056435E0,9.953366518E-1
4.809303125E0,-6.933607906E-2,9.863162994E0,1.047970772E0
4.814265625E0,-4.540364072E-2,9.896661758E0,1.014471173E0
4.819229687E0,3.595133126E-2,9.956489563E0,1.033615232E0
4.824192187E0,-1.669237576E-2,9.899056435E0,8.972222805E-1
4.829156250E0,5.748957023E-2,9.982805252E0,8.924434781E-1
4.834118750E0,6.227797270E-2,9.939739227E0,9.044048786E-1
4.839082812E0,1.029410958E-1,9.927767754E0,8.517611623E-1
4.844045312E0,8.859504014E-2,9.934949875E0,8.661168218E-1
4.849007812E0,1.771230400E-1,9.865556717E0,8.852608800E-1
4.853971875E0,2.225841433E-1,9.884700775E0,9.690100551E-1
4.858934375E0,3.015449345E-1,9.867951393E0,9.737984538E-1
4.863898437E0,4.283609986E-1,9.848807335E0,1.026442170E0
4.868860937E0,3.972555101E-1,9.906239510E0,1.057547569E0
4.873823437E0,4.977545440E-1,9.887095451E0,1.064720750E0
4.878787500E0,4.642548561E-1,9.906239510E0,1.095826149E0
4.883750000E0,5.073313117E-1,9.899056435E0,1.155652523E0
4.888714062E0,5.456098914E-1,9.918201447E0,1.186757922E0
4.893676562E0,5.695422888E-1,9.887095451E0,1.184363604E0
4.898640625E0,5.958592892E-1,9.875133514E0,1.237007499E0
4.903603125E0,6.317532063E-1,9.851201057E0,1.191546321E0
4.908565625E0,6.030419469E-1,9.841633797E0,1.234613180E0
4.913529687E0,5.695422888E-1,9.815307617E0,1.327939153E0
4.918492187E0,5.575808883E-1,9.870346069E0,1.387755871E0
4.923456250E0,5.145043731E-1,9.834450722E0,1.373400211E0
4.928418750E0,4.020439088E-1,9.784202576E0,1.387755871E0
4.933382812E0,2.919777036E-1,9.805740356E0,1.361438870E0
4.938345312E0,2.345455736E-1,9.863162994E0,1.296824098E0
4.943307812E0,1.723346412E-1,9.796163559E0,1.263324499E0
4.948271875E0,5.030696467E-2,9.884700775E0,1.189152122E0
4.953234375E0,-7.411490381E-2,9.832057953E0,1.158046603E0
4.958198437E0,-9.804734588E-2,9.781807899E0,1.105402946E0
4.963160937E0,-1.124029830E-1,9.846412659E0,1.036009431E0
4.968125000E0,-1.219702139E-1,9.800951958E0,1.028836250E0
4.973087500E0,-1.195855886E-1,9.832057953E0,9.546543956E-1
4.978050000E0,-1.147971824E-1,9.779414177E0,9.067991376E-1
4.983014062E0,-1.147971824E-1,9.774634361E0,8.158673048E-1
4.987976562E0,-1.291528195E-1,9.753096581E0,7.440891862E-1
4.992940625E0,-6.454767287E-2,9.736346245E0,6.962338090E-1
4.997903125E0,-6.933607906E-2,9.760279655E0,8.039059043E-1
5.002867187E0,4.313393682E-2,9.748308182E0,7.943387032E-1
5.007829687E0,9.338344634E-2,9.729164124E0,7.608389854E-1
5.012792187E0,1.507963985E-1,9.755491257E0,7.632332444E-1
5.017756250E0,1.340465695E-1,9.733952522E0,6.746956110E-1
5.022718750E0,2.800066769E-1,9.767452240E0,6.507631540E-1
5.027682812E0,2.847950757E-1,9.793779373E0,7.177625299E-1
5.032645312E0,3.254773617E-1,9.707635880E0,6.914454103E-1
5.037609375E0,3.517944217E-1,9.738740921E0,8.206557035E-1
5.042571875E0,3.446213901E-1,9.743529320E0,9.163663387E-1
5.047534375E0,3.805056810E-1,9.743529320E0,9.594427943E-1
5.052498437E0,4.092265368E-1,9.745914459E0,9.761926532E-1
5.057460937E0,4.475050271E-1,9.772240639E0,9.474717975E-1
5.062425000E0,3.637558520E-1,9.726778984E0,9.618370533E-1
5.067387500E0,2.991507351E-1,9.738740921E0,9.737984538E-1
5.072351562E0,2.704394460E-1,9.772240639E0,9.067991376E-1
5.077314062E0,2.704394460E-1,9.786596298E0,9.857599139E-1
5.082276562E0,2.752278447E-1,9.733952522E0,9.115875363E-1
5.087240625E0,2.417281866E-1,9.748308182E0,9.163663387E-1
5.092203125E0,2.608722150E-1,9.731558800E0,9.690100551E-1
5.097167187E0,2.177957445E-1,9.714808464E0,9.570485950E-1
5.102129687E0,2.249783427E-1,9.745914459E0,9.929425120E-1
5.107092187E0,1.890844703E-1,9.798557281E0,1.069509029E0
5.112056250E0,1.340465695E-1,9.772240639E0,1.110191226E0
5.117018750E0,4.552813992E-2,9.832057953E0,1.045586228E0
5.121982812E0,-2.336740959E-3,9.848807335E0,1.016865373E0
5.126945312E0,-9.086474776E-2,9.879913330E0,1.074297428E0
5.131909375E0,-1.363354176E-1,9.922988892E0,1.071903229E0
5.136871875E0,-1.195855886E-1,9.848807335E0,1.033615232E0
5.141834375E0,-1.602582783E-1,9.913412094E0,1.117364407E0
5.146796875E0,-1.602582783E-1,9.934949875E0,1.024047971E0
5.151760937E0,-1.195855886E-1,9.901451111E0,1.064720750E0
5.156725000E0,-9.325893968E-2,9.846412659E0,1.004903913E0
5.161685937E0,-9.086474776E-2,9.937344551E0,9.857599139E-1
5.166650000E0,-4.779784381E-2,9.968450546E0,9.187605381E-1
5.171614062E0,-5.975927413E-2,9.968450546E0,9.905482531E-1
5.176576562E0,-3.583640978E-2,9.951700211E0,1.016865373E0
5.181539062E0,-2.386540174E-2,9.925383568E0,1.043192029E0
5.186503125E0,3.595133126E-2,9.872738838E0,1.150864005E0
5.191467187E0,6.466259807E-2,9.934949875E0,1.174796462E0
5.196428125E0,8.620083332E-2,9.894268990E0,1.177190661E0
5.201392187E0,8.141243458E-2,9.870346069E0,1.284862638E0
5.206354687E0,1.579789966E-1,9.817702293E0,1.201113582E0
5.211318750E0,1.866902709E-1,9.817702293E0,1.179575324E0
5.216281250E0,1.938728839E-1,9.748308182E0,1.162825465E0
5.221245312E0,2.512954175E-1,9.724386215E0,1.129325747E0
5.226209375E0,2.800066769E-1,9.745914459E0,1.055153489E0
5.231171875E0,2.776220441E-1,9.779414177E0,1.074297428E0
5.236134375E0,3.111217320E-1,9.769846916E0,1.024047971E0
5.241096875E0,3.278715611E-1,9.712413788E0,1.024047971E0
5.246060937E0,3.063333035E-1,9.753096581E0,1.016865373E0
5.251025000E0,3.470060229E-1,9.736346245E0,9.331161380E-1
5.255987500E0,4.044381380E-1,9.690885544E0,7.608389854E-1
5.260951562E0,3.613712192E-1,9.733952522E0,8.039059043E-1
5.265912500E0,3.972555101E-1,9.712413788E0,7.536563873E-1
5.270876562E0,3.828999102E-1,9.710029602E0,7.536563873E-1
5.275839062E0,3.685442507E-1,9.733952522E0,7.847618461E-1
5.280803125E0,3.398329914E-1,9.738740921E0,7.560505867E-1
5.285767187E0,2.919777036E-1,9.774634361E0,8.924434781E-1
5.290729687E0,2.177957445E-1,9.745914459E0,9.163663387E-1
5.295692187E0,1.842960715E-1,9.791384697E0,1.019259572E0
5.300654687E0,1.938728839E-1,9.791384697E0,1.043192029E0
5.305618750E0,1.962575018E-1,9.844018936E0,1.105402946E0
5.310582812E0,1.101237014E-1,9.884700775E0,1.110191226E0
5.315545312E0,1.125083268E-1,9.834450722E0,1.208296180E0
5.320507812E0,9.815269709E-2,9.903844833E0,1.248968840E0
5.325471875E0,1.196909323E-1,9.911018372E0,1.237007499E0
5.330435937E0,3.834553435E-2,9.891883850E0,1.256151438E0
5.335398437E0,1.149025261E-1,9.932557106E0,1.318362474E0
5.340360937E0,2.638410218E-2,9.954094887E0,1.284862638E0
5.345325000E0,2.398990095E-2,9.930162430E0,1.354256272E0
5.350287500E0,3.595133126E-2,9.875133514E0,1.289651155E0
5.355250000E0,2.638410218E-2,9.891883850E0,1.306401014E0
5.360214062E0,-2.865380608E-2,9.934949875E0,1.210690260E0
5.365178125E0,-5.258624628E-2,9.956489563E0,1.220257521E0
5.370140625E0,-7.890331000E-2,9.911018372E0,1.227440238E0
5.375103125E0,-6.694187969E-2,9.927767754E0,1.196325064E0
5.380067187E0,-1.291528195E-1,9.920595169E0,1.105402946E0
5.385029687E0,-1.459026486E-1,9.970844269E0,1.105402946E0
5.389993750E0,-8.608591557E-2,9.944517136E0,1.119758487E0
5.394956250E0,-5.258624628E-2,9.887095451E0,1.122152686E0
5.399918750E0,2.877830528E-2,9.872738838E0,1.167613864E0
5.404882812E0,3.834553435E-2,9.896661758E0,1.083864689E0
5.409845312E0,1.220851392E-1,9.848807335E0,1.040797710E0
5.414807812E0,7.902780920E-2,9.884700775E0,1.026442170E0
5.419771875E0,1.149025261E-1,9.800951958E0,9.331161380E-1
5.424734375E0,1.819018722E-1,9.796163559E0,9.761926532E-1
5.429696875E0,2.536896169E-1,9.779414177E0,9.402987957E-1
5.434660937E0,3.517944217E-1,9.738740921E0,9.211547375E-1
5.439625000E0,3.015449345E-1,9.767452240E0,8.661168218E-1
5.444587500E0,4.044381380E-1,9.738740921E0,9.594427943E-1
5.449551562E0,4.786105156E-1,9.745914459E0,1.024047971E0
5.454514062E0,4.211879671E-1,9.710029602E0,1.036009431E0
5.459478125E0,3.972555101E-1,9.748308182E0,1.126941204E0
5.464440625E0,3.661500514E-1,9.810519218E0,1.217863441E0
5.469403125E0,3.326503932E-1,9.793779373E0,1.359044671E0
5.474365625E0,2.943718731E-1,9.817702293E0,1.244190097E0
5.479329687E0,2.345455736E-1,9.820096016E0,1.229824781E0
5.484292187E0,2.249783427E-1,9.851201057E0,1.220257521E0
5.489256250E0,2.130073458E-1,9.891883850E0,1.282468557E0
5.494218750E0,1.555848122E-1,9.889489174E0,1.284862638E0
5.499181250E0,9.576806426E-2,9.882307053E0,1.277689695E0
5.504145312E0,8.380663395E-2,9.803345680E0,1.399717450E0
5.509107812E0,8.380663395E-2,9.887095451E0,1.337506413E0
5.514071875E0,3.116292879E-2,9.915806770E0,1.337506413E0
5.519034375E0,-1.429817267E-2,9.946911812E0,1.253757238E0
5.523998437E0,-9.086474776E-2,9.944517136E0,1.165219545E0
5.528960937E0,-1.554698795E-1,9.934949875E0,1.086258888E0
5.533925000E0,-2.105077952E-1,9.954094887E0,1.033615232E0
5.538887500E0,-2.152961940E-1,9.934949875E0,9.594427943E-1
5.543851562E0,-2.033347636E-1,9.949306488E0,9.618370533E-1
5.548814062E0,-2.224692255E-1,9.956489563E0,9.785868526E-1
5.553776562E0,-9.804734588E-2,9.944517136E0,1.012086511E0
5.558740625E0,-7.411490381E-2,9.939739227E0,9.642215967E-1
5.563703125E0,-7.650911063E-2,9.882307053E0,1.105402946E0
5.568665625E0,-6.454767287E-2,9.970844269E0,1.114970207E0
5.573629687E0,-5.497087166E-2,9.944517136E0,1.210690260E0
5.578592187E0,1.441309415E-2,9.944517136E0,1.265718579E0
5.583556250E0,4.791276529E-2,9.930162430E0,1.296824098E0
5.588518750E0,7.902780920E-2,9.913412094E0,1.294439435E0
5.593481250E0,1.292581707E-1,9.855990410E0,1.327939153E0
5.598445312E0,8.859504014E-2,9.889489174E0,1.296824098E0
5.603407812E0,1.603731960E-1,9.803345680E0,1.263324499E0
5.608371875E0,2.752278447E-1,9.741134644E0,1.225046039E0
5.613334375E0,2.824008763E-1,9.717203140E0,1.220257521E0
5.618298437E0,3.039391041E-1,9.738740921E0,1.210690260E0
5.623260937E0,3.302561939E-1,9.757884979E0,1.107797146E0
5.628225000E0,2.728336453E-1,9.719596863E0,9.761926532E-1
5.633187500E0,3.517944217E-1,9.688490868E0,9.737984538E-1
5.638151562E0,2.943718731E-1,9.676529884E0,9.020106792E-1
5.643114062E0,2.321513742E-1,9.698058128E0,8.039059043E-1
5.648076562E0,2.680452466E-1,9.710029602E0,7.823676467E-1
5.653039062E0,2.608722150E-1,9.719596863E0,7.871560454E-1
5.658003125E0,2.441223711E-1,9.800951958E0,7.416949272E-1
5.662965625E0,1.125083268E-1,9.762663841E0,7.201567292E-1
5.667929687E0,1.579789966E-1,9.753096581E0,6.507631540E-1
5.672892187E0,2.225841433E-1,9.714808464E0,8.182615638E-1
5.677854687E0,2.082285136E-1,9.750701904E0,7.321181893E-1
5.682818750E0,2.632568479E-1,9.741134644E0,7.440891862E-1
5.687781250E0,2.991507351E-1,9.693280220E0,7.440891862E-1
5.692745312E0,3.876882792E-1,9.652597427E0,8.541554213E-1
5.697707812E0,3.900824785E-1,9.695664406E0,8.039059043E-1
5.702671875E0,3.302561939E-1,9.733952522E0,8.039059043E-1
5.707634375E0,3.805056810E-1,9.671741486E0,8.661168218E-1
5.712598437E0,3.565828204E-1,9.662164688E0,9.546543956E-1
5.717560937E0,3.111217320E-1,9.686098099E0,1.031220913E0
5.722525000E0,3.613712192E-1,9.678915024E0,1.138902545E0
5.727487500E0,2.536896169E-1,9.676529884E0,1.203507662E0
5.732450000E0,2.656510174E-1,9.760279655E0,1.287256956E0
5.737414062E0,1.819018722E-1,9.748308182E0,1.246574640E0
5.742376562E0,1.364407688E-1,9.753096581E0,1.210690260E0
5.747340625E0,1.149025261E-1,9.762663841E0,1.227440238E0
5.752303125E0,5.746084207E-5,9.760279655E0,1.165219545E0
5.757265625E0,-6.933607906E-2,9.772240639E0,1.124547005E0
5.762229687E0,-6.694187969E-2,9.829663277E0,1.162825465E0
5.767192187E0,-4.540364072E-2,9.800951958E0,1.114970207E0
5.772156250E0,-9.086474776E-2,9.798557281E0,1.019259572E0
5.777118750E0,-9.086474776E-2,9.817702293E0,9.187605381E-1
5.782082812E0,-2.865380608E-2,9.812912941E0,8.996165395E-1
5.787045312E0,-2.386540174E-2,9.824884415E0,8.828666210E-1
5.792007812E0,1.077295020E-1,9.808135033E0,7.034068704E-1
5.796971875E0,5.988377333E-2,9.808135033E0,6.866570711E-1
5.801934375E0,8.620083332E-2,9.853595734E0,6.866570711E-1
5.806898437E0,9.098923951E-2,9.812912941E0,7.680120468E-1
5.811860937E0,2.106227130E-1,9.884700775E0,8.206557035E-1
5.816825000E0,1.866902709E-1,9.827268600E0,8.685110211E-1
5.821787500E0,1.436233670E-1,9.865556717E0,8.780878186E-1
5.826750000E0,1.555848122E-1,9.808135033E0,9.666158557E-1
5.831714062E0,1.340465695E-1,9.769846916E0,9.977213144E-1
5.836676562E0,1.220851392E-1,9.817702293E0,1.047970772E0
5.841640625E0,1.196909323E-1,9.836845398E0,1.136508465E0
5.846603125E0,1.651520431E-1,9.827268600E0,1.129325747E0
5.851567187E0,1.555848122E-1,9.841633797E0,1.129325747E0
5.856529687E0,1.890844703E-1,9.805740356E0,1.067114830E0
5.861492187E0,1.771230400E-1,9.836845398E0,1.131719947E0
5.866456250E0,2.177957445E-1,9.803345680E0,1.055153489E0
5.871418750E0,3.302561939E-1,9.834450722E0,1.131719947E0
5.876382812E0,3.230831623E-1,9.824884415E0,1.191546321E0
5.881345312E0,3.541886210E-1,9.798557281E0,1.229824781E0
5.886309375E0,2.919777036E-1,9.788990021E0,1.193940520E0
5.891271875E0,2.656510174E-1,9.815307617E0,1.354256272E0
5.896234375E0,2.512954175E-1,9.808135033E0,1.304006696E0
5.901198437E0,2.154015303E-1,9.832057953E0,1.411678791E0
5.906160937E0,2.417281866E-1,9.848807335E0,1.354256272E0
5.911125000E0,2.536896169E-1,9.798557281E0,1.382967472E0
5.916087500E0,2.465070039E-1,9.827268600E0,1.301612496E0
5.921051562E0,2.225841433E-1,9.798557281E0,1.208296180E0
5.926014062E0,2.584780157E-1,9.803345680E0,1.091047287E0
5.930976562E0,2.010459006E-1,9.760279655E0,1.155652523E0
5.935940625E0,2.704394460E-1,9.820096016E0,1.172402263E0
5.940903125E0,2.824008763E-1,9.748308182E0,1.160440803E0
5.945865625E0,3.541886210E-1,9.808135033E0,1.160440803E0
5.950829687E0,3.206889629E-1,9.788990021E0,1.222651720E0
5.955793750E0,2.656510174E-1,9.812912941E0,1.193940520E0
5.960756250E0,2.967565060E-1,9.851201057E0,1.244190097E0
5.965718750E0,2.800066769E-1,9.824884415E0,1.129325747E0
5.970682812E0,2.130073458E-1,9.846412659E0,1.040797710E0
5.975645312E0,1.244793311E-1,9.896661758E0,9.546543956E-1
5.980609375E0,-3.104800731E-2,9.875133514E0,8.589437604E-1
5.985571875E0,-8.369170874E-2,9.903844833E0,9.379045963E-1
5.990534375E0,-9.086474776E-2,9.925383568E0,9.259431362E-1
5.995498437E0,-8.608591557E-2,9.908634186E0,9.594427943E-1
6.000460937E0,-1.459026486E-1,9.901451111E0,1.026442170E0
6.005425000E0,-1.291528195E-1,9.942132950E0,1.036009431E0
6.010387500E0,-2.224692255E-1,9.911018372E0,1.174796462E0
6.015350000E0,-3.014395833E-1,9.896661758E0,1.146075726E0
6.020314062E0,-2.583630979E-1,9.867951393E0,1.167613864E0
6.025276562E0,-2.320460379E-1,9.800951958E0,1.158046603E0
6.030240625E0,-2.487958670E-1,9.848807335E0,1.114970207E0
6.035203125E0,-2.057193965E-1,9.894268990E0,1.026442170E0
6.040167187E0,-2.009405643E-1,9.832057953E0,1.012086511E0
6.045129687E0,-2.129019946E-1,9.894268990E0,9.642215967E-1
6.050093750E0,-1.076145768E-1,9.858384132E0,9.115875363E-1
6.055056250E0,4.845864139E-3,9.844018936E0,9.785868526E-1
6.060018750E0,1.441309415E-2,9.851201057E0,8.637226820E-1
6.064982812E0,-4.721365869E-3,9.796163559E0,7.129837275E-1
6.069945312E0,3.355713189E-2,9.788990021E0,7.201567292E-1
6.074909375E0,3.355713189E-2,9.829663277E0,7.321181893E-1
6.079871875E0,6.227797270E-2,9.779414177E0,7.201567292E-1
6.084835937E0,1.220851392E-1,9.824884415E0,7.129837275E-1
6.089798437E0,1.316523552E-1,9.767452240E0,7.081953287E-1
6.094760937E0,1.125083268E-1,9.808135033E0,7.799734473E-1
6.099725000E0,9.098923951E-2,9.815307617E0,7.751946449E-1
6.104687500E0,1.202846877E-2,9.822490692E0,8.374055624E-1
6.109651562E0,4.791276529E-2,9.812912941E0,9.331161380E-1
6.114614062E0,6.227797270E-2,9.858384132E0,1.007298112E0
6.119576562E0,3.116292879E-2,9.839240074E0,1.062336087E0
6.124540625E0,4.791276529E-2,9.863162994E0,1.217863441E0
6.129503125E0,-2.625960298E-2,9.848807335E0,1.205901980E0
6.134467187E0,4.845864139E-3,9.894268990E0,1.292045236E0
6.139429687E0,-3.344221041E-2,9.942132950E0,1.268112898E0
6.144393750E0,2.451662440E-3,9.903844833E0,1.220257521E0
6.149356250E0,-2.336740959E-3,9.870346069E0,1.191546321E0
6.154318750E0,-4.300943762E-2,9.906239510E0,1.124547005E0
6.159282812E0,-5.019204319E-2,9.894268990E0,1.210690260E0
6.164245312E0,-5.258624628E-2,9.920595169E0,1.179575324E0
6.169209375E0,-9.325893968E-2,9.853595734E0,1.153258204E0
6.174171875E0,-6.933607906E-2,9.872738838E0,1.232218981E0
6.179135937E0,-1.429817267E-2,9.961267471E0,1.193940520E0
6.184098437E0,-3.344221041E-2,9.946911812E0,1.304006696E0
6.189062500E0,4.313393682E-2,9.906239510E0,1.327939153E0
6.194025000E0,7.423940301E-2,9.860768318E0,1.299218416E0
6.198987500E0,2.877830528E-2,9.913412094E0,1.299218416E0
6.203951562E0,3.116292879E-2,9.966055870E0,1.306401014E0
6.208914062E0,-4.721365869E-3,9.961267471E0,1.344689012E0
6.213878125E0,7.663360238E-2,9.865556717E0,1.277689695E0
6.218840625E0,5.988377333E-2,9.937344551E0,1.198719382E0
6.223804687E0,1.920149848E-2,9.882307053E0,1.244190097E0
6.228767187E0,5.509537086E-2,9.918201447E0,1.220257521E0
6.233729687E0,3.116292879E-2,9.903844833E0,1.136508465E0
6.238693750E0,5.509537086E-2,9.925383568E0,1.112575889E0
6.243656250E0,-5.497087166E-2,9.963662148E0,1.069509029E0
6.248620312E0,-6.454767287E-2,9.903844833E0,1.083864689E0
6.253582812E0,-8.129751682E-2,9.836845398E0,1.119758487E0
6.258546875E0,-6.215347722E-2,9.875133514E0,1.114970207E0
6.263509375E0,-5.258624628E-2,9.899056435E0,1.002509713E0
6.268471875E0,-5.736507475E-2,9.961267471E0,9.761926532E-1
6.273435937E0,-9.565314651E-2,9.891883850E0,9.402987957E-1
6.278398437E0,-8.847054094E-2,9.841633797E0,9.666158557E-1
6.283360937E0,2.638410218E-2,9.846412659E0,8.756936789E-1
6.288325000E0,-9.509769268E-3,9.844018936E0,8.374055624E-1
6.293287500E0,9.815269709E-2,9.827268600E0,7.943387032E-1
6.298251562E0,3.595133126E-2,9.841633797E0,8.397997618E-1
6.303214062E0,-4.540364072E-2,9.863162994E0,8.661168218E-1
6.308178125E0,-3.583640978E-2,9.800951958E0,8.709052205E-1
6.313140625E0,-1.669237576E-2,9.810519218E0,9.953366518E-1
6.318104687E0,-4.779784381E-2,9.808135033E0,1.038403511E0
6.323067187E0,-2.386540174E-2,9.793779373E0,1.124547005E0
6.328029687E0,1.920149848E-2,9.824884415E0,1.124547005E0
6.332993750E0,4.791276529E-2,9.779414177E0,1.112575889E0
6.337956250E0,1.149025261E-1,9.750701904E0,1.064720750E0
6.342920312E0,1.196909323E-1,9.750701904E0,1.028836250E0
6.347882812E0,1.795076579E-1,9.702846527E0,9.785868526E-1
6.352846875E0,1.531905979E-1,9.721991539E0,9.594427943E-1
6.357809375E0,8.141243458E-2,9.729164124E0,9.402987957E-1
6.362771875E0,1.196909323E-1,9.753096581E0,9.570485950E-1
6.367735937E0,9.634267539E-3,9.726778984E0,9.402987957E-1
6.372698437E0,-3.344221041E-2,9.729164124E0,9.785868526E-1
6.377662500E0,-1.190397050E-2,9.745914459E0,1.002509713E0
6.382625000E0,-6.933607906E-2,9.733952522E0,1.009692311E0
6.387587500E0,-4.779784381E-2,9.769846916E0,9.809715152E-1
6.392551562E0,-1.363354176E-1,9.755491257E0,9.785868526E-1
6.397514062E0,-1.363354176E-1,9.772240639E0,9.235489368E-1
6.402476562E0,-2.057193965E-1,9.793779373E0,9.570485950E-1
6.407440625E0,-1.267586201E-1,9.810519218E0,9.929425120E-1
6.412404687E0,-6.215347722E-2,9.772240639E0,9.833656549E-1
6.417367187E0,1.202846877E-2,9.827268600E0,9.857599139E-1
6.422329687E0,1.441309415E-2,9.788990021E0,9.450871348E-1
6.427292187E0,5.746084207E-5,9.774634361E0,8.780878186E-1
6.432256250E0,1.441309415E-2,9.717203140E0,8.182615638E-1
6.437220312E0,-3.344221041E-2,9.784202576E0,8.063001037E-1
6.442182812E0,3.355713189E-2,9.767452240E0,8.541554213E-1
6.447146875E0,1.388349682E-1,9.743529320E0,9.067991376E-1
6.452109375E0,1.771230400E-1,9.745914459E0,9.737984538E-1
6.457071875E0,2.034401149E-1,9.736346245E0,9.450871348E-1
6.462035937E0,2.273725420E-1,9.750701904E0,1.019259572E0
6.466998437E0,2.034401149E-1,9.769846916E0,1.091047287E0
6.471962500E0,2.082285136E-1,9.743529320E0,1.112575889E0
6.476925000E0,1.627578288E-1,9.796163559E0,1.181969523E0
6.481889062E0,1.101237014E-1,9.891883850E0,1.181969523E0
6.486851562E0,8.380663395E-2,9.853595734E0,1.203507662E0
6.491814062E0,3.834553435E-2,9.853595734E0,1.263324499E0
6.496778125E0,5.030696467E-2,9.832057953E0,1.177190661E0
6.501740625E0,4.845864139E-3,9.844018936E0,1.160440803E0
6.506704687E0,1.005468965E-1,9.839240074E0,1.131719947E0
6.511667187E0,9.576806426E-2,9.841633797E0,1.112575889E0
6.516631250E0,1.101237014E-1,9.812912941E0,1.074297428E0
6.521593750E0,5.030696467E-2,9.844018936E0,1.047970772E0
6.526556250E0,7.902780920E-2,9.793779373E0,1.143691063E0
6.531520312E0,8.141243458E-2,9.870346069E0,1.177190661E0
6.536482812E0,8.859504014E-2,9.841633797E0,1.136508465E0
6.541446875E0,7.902780920E-2,9.860768318E0,1.141296744E0
6.546409375E0,-2.336740959E-3,9.918201447E0,1.114970207E0
6.551373437E0,-6.694187969E-2,9.891883850E0,1.167613864E0
6.556335937E0,-5.975927413E-2,9.894268990E0,1.172402263E0
6.561298437E0,-5.975927413E-2,9.836845398E0,1.131719947E0
6.566262500E0,-2.865380608E-2,9.832057953E0,1.012086511E0
6.571225000E0,-6.454767287E-2,9.889489174E0,1.009692311E0
6.576189062E0,-5.736507475E-2,9.867951393E0,9.283373356E-1
6.581151562E0,-1.219702139E-1,9.891883850E0,9.618370533E-1
6.586115625E0,-1.411142498E-1,9.887095451E0,1.000115514E0
6.591078125E0,-9.325893968E-2,9.848807335E0,9.450871348E-1
6.596040625E0,-9.086474776E-2,9.877518654E0,1.000115514E0
6.601004687E0,-8.129751682E-2,9.906239510E0,8.972222805E-1
6.605967187E0,-2.865380608E-2,9.906239510E0,9.355103970E-1
6.610931250E0,-4.300943762E-2,9.841633797E0,9.139720798E-1
6.615893750E0,4.791276529E-2,9.836845398E0,8.589437604E-1
6.620856250E0,5.270116776E-2,9.822490692E0,8.780878186E-1
6.625820312E0,9.576806426E-2,9.846412659E0,9.307219982E-1
6.630782812E0,9.815269709E-2,9.820096016E0,1.038403511E0
6.635746875E0,4.073973373E-2,9.788990021E0,1.117364407E0
6.640709375E0,3.355713189E-2,9.788990021E0,1.167613864E0
6.645673437E0,5.746084207E-5,9.805740356E0,1.227440238E0
6.650635937E0,7.184520364E-2,9.829663277E0,1.330323815E0
6.655598437E0,1.029410958E-1,9.784202576E0,1.347073555E0
6.660562500E0,1.172967330E-1,9.844018936E0,1.399717450E0
6.665525000E0,1.196909323E-1,9.839240074E0,1.304006696E0
6.670489062E0,9.098923951E-2,9.827268600E0,1.332718015E0
6.675451562E0,1.388349682E-1,9.839240074E0,1.356650352E0
6.680415625E0,1.340465695E-1,9.822490692E0,1.184363604E0
6.685378125E0,1.771230400E-1,9.822490692E0,1.170008063E0
6.690340625E0,1.220851392E-1,9.855990410E0,1.119758487E0
6.695304687E0,8.380663395E-2,9.848807335E0,1.059941769E0
6.700267187E0,3.116292879E-2,9.841633797E0,1.038403511E0
6.705231250E0,-4.721365869E-3,9.879913330E0,9.833656549E-1
6.710193750E0,4.073973373E-2,9.863162994E0,9.115875363E-1
6.715157812E0,7.240065839E-3,9.882307053E0,9.498660564E-1
6.720120312E0,-4.779784381E-2,9.891883850E0,8.565496206E-1
6.725082812E0,-5.736507475E-2,9.903844833E0,9.283373356E-1
6.730046875E0,-9.565314651E-2,9.882307053E0,8.206557035E-1
6.735009375E0,-9.325893968E-2,9.911018372E0,8.182615638E-1
6.739973437E0,-1.602582783E-1,9.922988892E0,8.900492787E-1
6.744935937E0,-1.817965209E-1,9.942132950E0,9.977213144E-1
6.749898437E0,-1.985463500E-1,9.922988892E0,1.062336087E0
6.754862500E0,-7.890331000E-2,9.889489174E0,1.036009431E0
6.759825000E0,-3.583640978E-2,9.894268990E0,1.071903229E0
6.764789062E0,-1.387200505E-1,9.889489174E0,1.126941204E0
6.769751562E0,-9.086474776E-2,9.942132950E0,1.141296744E0
6.774714062E0,-5.975927413E-2,9.958883286E0,1.193940520E0
6.779678125E0,2.877830528E-2,9.882307053E0,1.189152122E0
6.784640625E0,3.595133126E-2,9.867951393E0,1.179575324E0
6.789603125E0,5.509537086E-2,9.903844833E0,1.213074923E0
6.794567187E0,9.098923951E-2,9.827268600E0,1.225046039E0
6.799529687E0,1.460079998E-1,9.846412659E0,1.177190661E0
6.804492187E0,7.663360238E-2,9.820096016E0,1.126941204E0
6.809457812E0,5.988377333E-2,9.853595734E0,1.165219545E0
6.814420312E0,1.340465695E-1,9.808135033E0,1.177190661E0
6.819382812E0,1.268735379E-1,9.793779373E0,1.165219545E0
6.824345312E0,1.675462276E-1,9.745914459E0,1.122152686E0
6.829309375E0,1.531905979E-1,9.743529320E0,1.103008628E0
6.834271875E0,1.196909323E-1,9.705241203E0,1.071903229E0
6.839235937E0,1.675462276E-1,9.745914459E0,1.071903229E0
6.844198437E0,9.338344634E-2,9.777029037E0,1.059941769E0
6.849162500E0,6.945100427E-2,9.848807335E0,1.110191226E0
6.854125000E0,1.627578288E-1,9.786596298E0,1.100614548E0
6.859087500E0,5.988377333E-2,9.762663841E0,1.095826149E0
6.864051562E0,1.005468965E-1,9.738740921E0,1.098220348E0
6.869014062E0,1.364407688E-1,9.788990021E0,1.143691063E0
6.873978125E0,1.005468965E-1,9.755491257E0,1.052759290E0
6.878940625E0,6.466259807E-2,9.762663841E0,1.091047287E0
6.883904687E0,7.184520364E-2,9.779414177E0,1.100614548E0
6.888867187E0,7.423940301E-2,9.765057564E0,1.196325064E0
6.893831250E0,9.098923951E-2,9.791384697E0,1.167613864E0
6.898793750E0,9.098923951E-2,9.796163559E0,1.184363604E0
6.903756250E0,4.552813992E-2,9.798557281E0,1.177190661E0
6.908720312E0,5.030696467E-2,9.791384697E0,1.088653088E0
6.913682812E0,2.159569971E-2,9.822490692E0,1.052759290E0
6.918646875E0,4.552813992E-2,9.745914459E0,9.977213144E-1
6.923609375E0,1.005468965E-1,9.836845398E0,9.594427943E-1
6.928571875E0,1.244793311E-1,9.755491257E0,9.642215967E-1
6.933535937E0,1.531905979E-1,9.760279655E0,9.666158557E-1
6.938500000E0,7.902780920E-2,9.779414177E0,9.690100551E-1
6.943462500E0,1.244793311E-1,9.772240639E0,1.014471173E0
6.948425000E0,8.859504014E-2,9.832057953E0,1.038403511E0
6.953389062E0,1.412291676E-1,9.798557281E0,1.081470490E0
6.958351562E0,9.576806426E-2,9.836845398E0,1.107797146E0
6.963314062E0,8.620083332E-2,9.815307617E0,1.248968840E0
6.968278125E0,1.436233670E-1,9.848807335E0,1.186757922E0
6.973240625E0,1.149025261E-1,9.817702293E0,1.260939837E0
6.978204687E0,7.663360238E-2,9.855990410E0,1.193940520E0
6.983167187E0,8.141243458E-2,9.839240074E0,1.225046039E0
6.988131250E0,2.638410218E-2,9.855990410E0,1.074297428E0
6.993093750E0,3.595133126E-2,9.860768318E0,1.057547569E0
6.998057812E0,-9.509769268E-3,9.870346069E0,9.881540537E-1
7.003020312E0,-1.076145768E-1,9.796163559E0,1.016865373E0
7.007982812E0,-1.004415527E-1,9.913412094E0,9.761926532E-1
7.012945312E0,-1.219702139E-1,9.829663277E0,1.033615232E0
7.017909375E0,-8.847054094E-2,9.839240074E0,1.036009431E0
7.022871875E0,-7.172070444E-2,9.820096016E0,9.809715152E-1
7.027835937E0,-7.650911063E-2,9.836845398E0,1.012086511E0
7.032798437E0,-1.195855886E-1,9.820096016E0,9.355103970E-1
7.037762500E0,-1.961521655E-1,9.810519218E0,8.828666210E-1
7.042725000E0,-1.985463500E-1,9.808135033E0,1.028836250E0
7.047687500E0,-2.440074682E-1,9.863162994E0,9.259431362E-1
7.052651562E0,-2.176903933E-1,9.812912941E0,9.546543956E-1
7.057614062E0,-2.822955251E-1,9.810519218E0,9.522601962E-1
7.062578125E0,-1.985463500E-1,9.810519218E0,1.012086511E0
7.067540625E0,-1.363354176E-1,9.839240074E0,1.091047287E0
7.072503125E0,-1.100087836E-1,9.829663277E0,1.024047971E0
7.077467187E0,-5.019204319E-2,9.877518654E0,1.000115514E0
7.082429687E0,-3.822103515E-2,9.815307617E0,1.016865373E0
7.087393750E0,-4.721365869E-3,9.815307617E0,9.211547375E-1
7.092356250E0,9.338344634E-2,9.836845398E0,8.493670225E-1
7.097320312E0,1.699404269E-1,9.805740356E0,8.206557035E-1
7.102282812E0,1.460079998E-1,9.786596298E0,9.091932774E-1
7.107245312E0,1.771230400E-1,9.738740921E0,8.565496206E-1
7.112209375E0,2.130073458E-1,9.803345680E0,9.235489368E-1
7.117171875E0,2.297571748E-1,9.769846916E0,9.905482531E-1
7.122135937E0,2.608722150E-1,9.777029037E0,9.953366518E-1
7.127098437E0,2.417281866E-1,9.803345680E0,1.076691628E0
7.132062500E0,2.512954175E-1,9.793779373E0,1.165219545E0
7.137025000E0,2.560837865E-1,9.777029037E0,1.256151438E0
7.141987500E0,2.536896169E-1,9.798557281E0,1.246574640E0
7.146951562E0,2.704394460E-1,9.815307617E0,1.248968840E0
7.151914062E0,1.460079998E-1,9.832057953E0,1.337506413E0
7.156878125E0,1.795076579E-1,9.786596298E0,1.332718015E0
7.161840625E0,2.130073458E-1,9.820096016E0,1.414072990E0
7.166803125E0,1.747288406E-1,9.853595734E0,1.378179073E0
7.171767187E0,1.627578288E-1,9.839240074E0,1.332718015E0
7.176729687E0,9.338344634E-2,9.891883850E0,1.256151438E0
7.181693750E0,6.945100427E-2,9.827268600E0,1.134114146E0
7.186656250E0,5.748957023E-2,9.820096016E0,1.012086511E0
7.191620312E0,-2.147120051E-2,9.927767754E0,9.666158557E-1
7.196582812E0,-3.822103515E-2,9.879913330E0,9.235489368E-1
7.201546875E0,2.451662440E-3,9.887095451E0,7.991175056E-1
7.206509375E0,5.748957023E-2,9.877518654E0,8.397997618E-1
7.211471875E0,1.920149848E-2,9.920595169E0,8.350113630E-1
7.216435937E0,-4.061523825E-2,9.958883286E0,8.613380194E-1
7.221398437E0,-9.509769268E-3,9.896661758E0,9.402987957E-1
7.226362500E0,-5.258624628E-2,9.882307053E0,9.379045963E-1
7.231325000E0,-6.933607906E-2,9.896661758E0,9.594427943E-1
7.236289062E0,2.877830528E-2,9.908634186E0,9.714042544E-1
7.241251562E0,5.509537086E-2,9.872738838E0,1.138902545E0
7.246214062E0,1.920149848E-2,9.829663277E0,1.148469806E0
7.251178125E0,7.902780920E-2,9.872738838E0,1.203507662E0
7.256140625E0,1.220851392E-1,9.858384132E0,1.201113582E0
7.261104687E0,6.705679744E-2,9.839240074E0,1.270507097E0
7.266067187E0,1.202846877E-2,9.879913330E0,1.265718579E0
7.271031250E0,-4.061523825E-2,9.922988892E0,1.239401579E0
7.275993750E0,-5.736507475E-2,9.949306488E0,1.323150754E0
7.280956250E0,-1.195855886E-1,9.913412094E0,1.217863441E0
7.285920312E0,-9.804734588E-2,9.922988892E0,1.251363039E0
7.290882812E0,-2.386540174E-2,9.989988327E0,1.263324499E0
7.295846875E0,-2.625960298E-2,9.894268990E0,1.248968840E0
7.300809375E0,-9.509769268E-3,9.951700211E0,1.203507662E0
7.305773437E0,7.184520364E-2,9.918201447E0,1.086258888E0
7.310735937E0,8.859504014E-2,9.851201057E0,1.093441486E0
7.315698437E0,5.270116776E-2,9.841633797E0,1.112575889E0
7.320662500E0,5.988377333E-2,9.855990410E0,1.088653088E0
7.325625000E0,7.423940301E-2,9.887095451E0,1.076691628E0
7.330589062E0,8.380663395E-2,9.800951958E0,1.141296744E0
7.335551562E0,5.030696467E-2,9.824884415E0,1.141296744E0
7.340515625E0,1.441309415E-2,9.846412659E0,1.225046039E0
7.345478125E0,-2.336740959E-3,9.846412659E0,1.229824781E0
7.350440625E0,4.845864139E-3,9.858384132E0,1.282468557E0
7.355404687E0,4.845864139E-3,9.884700775E0,1.248968840E0
7.360367187E0,-1.908657700E-2,9.836845398E0,1.181969523E0
7.365329687E0,-3.344221041E-2,9.834450722E0,1.162825465E0
7.370293750E0,-1.124029830E-1,9.796163559E0,1.038403511E0
7.375257812E0,2.451662440E-3,9.836845398E0,1.047970772E0
7.380220312E0,4.791276529E-2,9.748308182E0,9.379045963E-1
7.385182812E0,1.149025261E-1,9.784202576E0,8.039059043E-1
7.390146875E0,1.292581707E-1,9.755491257E0,8.206557035E-1
7.395109375E0,1.651520431E-1,9.707635880E0,7.201567292E-1
7.400073437E0,9.576806426E-2,9.755491257E0,6.818686724E-1
7.405035937E0,5.030696467E-2,9.760279655E0,7.584447861E-1
7.410000000E0,3.116292879E-2,9.760279655E0,7.153682709E-1
7.414962500E0,3.834553435E-2,9.800951958E0,7.105894685E-1
7.419925000E0,5.509537086E-2,9.717203140E0,8.493670225E-1
7.424889062E0,7.902780920E-2,9.654992104E0,9.642215967E-1
7.429851562E0,3.834553435E-2,9.731558800E0,9.187605381E-1
7.434815625E0,3.595133126E-2,9.714808464E0,1.028836250E0
7.439778125E0,-1.190397050E-2,9.731558800E0,1.093441486E0
7.444740625E0,9.634267539E-3,9.748308182E0,1.076691628E0
7.449704687E0,8.620083332E-2,9.700452805E0,1.074297428E0
7.454667187E0,9.338344634E-2,9.745914459E0,1.031220913E0
7.459631250E0,1.436233670E-1,9.733952522E0,1.081470490E0
7.464593750E0,1.507963985E-1,9.726778984E0,9.690100551E-1
7.469557812E0,2.177957445E-1,9.674136162E0,8.876550794E-1
7.474520312E0,1.699404269E-1,9.769846916E0,8.589437604E-1
7.479482812E0,1.316523552E-1,9.731558800E0,8.134731650E-1
7.484446875E0,5.748957023E-2,9.796163559E0,7.991175056E-1
7.489409375E0,-5.258624628E-2,9.824884415E0,8.445882201E-1
7.494373437E0,-1.506910622E-1,9.841633797E0,8.996165395E-1
7.499335937E0,-2.176903933E-1,9.836845398E0,9.761926532E-1
7.504300000E0,-2.344402373E-1,9.867951393E0,1.047970772E0
7.509262500E0,-2.894685566E-1,9.882307053E0,1.129325747E0
7.514225000E0,-3.445064723E-1,9.872738838E0,1.136508465E0
7.519189062E0,-2.559688985E-1,9.894268990E0,1.143691063E0
7.524151562E0,-2.751129270E-1,9.877518654E0,1.153258204E0
7.529115625E0,-2.607572973E-1,9.901451111E0,1.112575889E0
7.534078125E0,-1.961521655E-1,9.877518654E0,1.191546321E0
7.539040625E0,-1.794023216E-1,9.867951393E0,1.239401579E0
7.544004687E0,-1.698351055E-1,9.891883850E0,1.181969523E0
7.548967187E0,-1.530852467E-1,9.966055870E0,1.170008063E0
7.553931250E0,-1.147971824E-1,9.911018372E0,1.241795778E0
7.558893750E0,-1.147971824E-1,9.879913330E0,1.177190661E0
7.563856250E0,-1.602582783E-1,9.863162994E0,1.141296744E0
7.568820312E0,-8.847054094E-2,9.903844833E0,1.100614548E0
7.573784375E0,1.441309415E-2,9.939739227E0,1.026442170E0
7.578746875E0,5.748957023E-2,9.844018936E0,9.618370533E-1
7.583709375E0,9.576806426E-2,9.848807335E0,7.871560454E-1
7.588671875E0,8.620083332E-2,9.870346069E0,7.129837275E-1
7.593635937E0,9.815269709E-2,9.815307617E0,6.268403530E-1
7.598598437E0,1.603731960E-1,9.805740356E0,6.603399515E-1
7.603562500E0,1.627578288E-1,9.781807899E0,5.670139790E-1
7.608525000E0,1.340465695E-1,9.784202576E0,6.603399515E-1
7.613489062E0,1.986517012E-1,9.736346245E0,6.890512705E-1
7.618451562E0,1.771230400E-1,9.733952522E0,8.158673048E-1
7.623415625E0,1.484021842E-1,9.731558800E0,8.637226820E-1
7.628378125E0,1.962575018E-1,9.719596863E0,9.785868526E-1
7.633340625E0,2.225841433E-1,9.690885544E0,9.283373356E-1
7.638304687E0,2.345455736E-1,9.719596863E0,1.107797146E0
7.643267187E0,2.680452466E-1,9.743529320E0,1.222651720E0
7.648231250E0,2.800066769E-1,9.695664406E0,1.337506413E0
7.653192187E0,2.249783427E-1,9.736346245E0,1.263324499E0
7.658156250E0,2.201899439E-1,9.690885544E0,1.258545637E0
7.663118750E0,1.125083268E-1,9.698058128E0,1.339900613E0
7.668084375E0,2.584780157E-1,9.705241203E0,1.399717450E0
7.673046875E0,2.465070039E-1,9.803345680E0,1.380573392E0
7.678009375E0,1.699404269E-1,9.753096581E0,1.205901980E0
7.682973437E0,1.507963985E-1,9.762663841E0,1.258545637E0
7.687935937E0,1.603731960E-1,9.753096581E0,1.026442170E0
7.692900000E0,9.576806426E-2,9.800951958E0,9.714042544E-1
7.697862500E0,3.116292879E-2,9.769846916E0,9.379045963E-1
7.702825000E0,3.595133126E-2,9.822490692E0,8.852608800E-1
7.707789062E0,3.116292879E-2,9.918201447E0,8.015117049E-1
7.712751562E0,9.576806426E-2,9.858384132E0,8.685110211E-1
7.717714062E0,1.842960715E-1,9.867951393E0,9.307219982E-1
7.722678125E0,1.507963985E-1,9.865556717E0,9.283373356E-1
7.727640625E0,1.914786696E-1,9.865556717E0,9.402987957E-1
7.732604687E0,1.436233670E-1,9.877518654E0,1.038403511E0
7.737567187E0,1.962575018E-1,9.889489174E0,1.103008628E0
7.742531250E0,1.388349682E-1,9.858384132E0,1.189152122E0
7.747493750E0,2.225841433E-1,9.925383568E0,1.363823533E0
7.752457812E0,2.560837865E-1,9.927767754E0,1.418861270E0
7.757418750E0,2.728336453E-1,9.860768318E0,1.414072990E0
7.762382812E0,2.154015303E-1,9.908634186E0,1.505004764E0
7.767345312E0,1.651520431E-1,9.860768318E0,1.557648420E0
7.772309375E0,2.034401149E-1,9.889489174E0,1.538504362E0
7.777273437E0,1.388349682E-1,9.918201447E0,1.435611248E0
7.782235937E0,7.184520364E-2,9.932557106E0,1.428428531E0
7.787200000E0,-3.583640978E-2,9.939739227E0,1.304006696E0
7.792162500E0,5.746084207E-5,9.958883286E0,1.193940520E0
7.797126562E0,-1.429817267E-2,9.956489563E0,1.112575889E0
7.802089062E0,-4.779784381E-2,1.001391125E1,1.002509713E0
7.807053125E0,-9.509769268E-3,9.927767754E0,9.857599139E-1
7.812015625E0,-1.908657700E-2,9.942132950E0,9.450871348E-1
7.816978125E0,9.634267539E-3,9.922988892E0,1.028836250E0
7.821942187E0,2.638410218E-2,9.932557106E0,1.007298112E0
7.826904687E0,2.877830528E-2,9.894268990E0,1.043192029E0
7.831868750E0,1.364407688E-1,9.812912941E0,1.131719947E0
7.836831250E0,1.005468965E-1,9.858384132E0,1.067114830E0
7.841793750E0,7.423940301E-2,9.844018936E0,1.110191226E0
7.846757812E0,5.270116776E-2,9.798557281E0,1.098220348E0
7.851720312E0,7.184520364E-2,9.800951958E0,1.210690260E0
7.856684375E0,1.364407688E-1,9.810519218E0,1.114970207E0
7.861646875E0,2.130073458E-1,9.750701904E0,1.098220348E0
7.866610937E0,2.177957445E-1,9.784202576E0,1.098220348E0
7.871573437E0,1.627578288E-1,9.714808464E0,1.004903913E0
7.876535937E0,2.058342993E-1,9.714808464E0,9.283373356E-1
7.881498437E0,2.201899439E-1,9.755491257E0,8.972222805E-1
7.886462500E0,2.369397730E-1,9.690885544E0,8.948376179E-1
7.891425000E0,2.776220441E-1,9.705241203E0,9.139720798E-1
7.896389062E0,3.326503932E-1,9.702846527E0,9.020106792E-1
7.901353125E0,3.733326793E-1,9.695664406E0,9.091932774E-1
7.906315625E0,4.140053689E-1,9.702846527E0,8.780878186E-1
7.911278125E0,4.211879671E-1,9.688490868E0,9.690100551E-1
7.916242187E0,3.948709071E-1,9.719596863E0,1.043192029E0
7.921204687E0,3.733326793E-1,9.743529320E0,1.112575889E0
7.926167187E0,3.422271907E-1,9.731558800E0,1.155652523E0
7.931131250E0,3.206889629E-1,9.745914459E0,1.268112898E0
7.936095312E0,2.560837865E-1,9.755491257E0,1.368611932E0
7.941057812E0,2.225841433E-1,9.781807899E0,1.366217613E0
7.946020312E0,2.034401149E-1,9.762663841E0,1.335112214E0
7.950984375E0,2.417281866E-1,9.748308182E0,1.416467190E0
7.955945312E0,2.417281866E-1,9.753096581E0,1.428428531E0
7.960910937E0,2.010459006E-1,9.848807335E0,1.414072990E0
7.965873437E0,2.393339872E-1,9.851201057E0,1.426043987E0
7.970837500E0,1.172967330E-1,9.867951393E0,1.418861270E0
7.975800000E0,1.077295020E-1,9.922988892E0,1.356650352E0
7.980762500E0,4.073973373E-2,9.918201447E0,1.263324499E0
7.985726562E0,-6.933607906E-2,9.939739227E0,1.237007499E0
7.990689062E0,-5.736507475E-2,9.891883850E0,1.208296180E0
7.995653125E0,-1.435084492E-1,9.970844269E0,1.057547569E0
8.000615625E0,-2.464016527E-1,9.918201447E0,1.107797146E0
8.005578125E0,-1.482968628E-1,9.922988892E0,9.594427943E-1
8.010542187E0,-1.770081222E-1,9.889489174E0,1.000115514E0
8.015504687E0,-1.937579513E-1,9.911018372E0,9.905482531E-1
8.020468750E0,-1.674408913E-1,9.875133514E0,1.019259572E0
8.025431250E0,-1.052203774E-1,9.934949875E0,1.074297428E0
8.030393750E0,-1.506910622E-1,9.915806770E0,1.086258888E0
8.035357812E0,5.748957023E-2,9.832057953E0,1.076691628E0
8.040321875E0,5.746084207E-5,9.836845398E0,1.083864689E0
8.045284375E0,2.451662440E-3,9.832057953E0,1.055153489E0
8.050246875E0,7.663360238E-2,9.805740356E0,1.227440238E0
8.055209375E0,9.338344634E-2,9.841633797E0,1.093441486E0
8.060173437E0,1.795076579E-1,9.834450722E0,1.086258888E0
8.065137500E0,1.555848122E-1,9.788990021E0,1.081470490E0
8.070100000E0,1.412291676E-1,9.772240639E0,1.052759290E0
8.075062500E0,1.842960715E-1,9.710029602E0,1.033615232E0
8.080026562E0,2.177957445E-1,9.793779373E0,1.026442170E0
8.084989062E0,2.608722150E-1,9.721991539E0,9.761926532E-1
8.089953125E0,2.824008763E-1,9.800951958E0,1.028836250E0
8.094915625E0,3.230831623E-1,9.793779373E0,9.761926532E-1
8.099879687E0,3.015449345E-1,9.808135033E0,1.021653771E0
8.104842187E0,3.206889629E-1,9.786596298E0,1.103008628E0
8.109804687E0,3.278715611E-1,9.810519218E0,1.074297428E0
8.114767187E0,2.967565060E-1,9.822490692E0,1.076691628E0
8.119731250E0,2.489012182E-1,9.800951958E0,1.098220348E0
8.124693750E0,2.273725420E-1,9.800951958E0,1.100614548E0
8.129657812E0,1.795076579E-1,9.870346069E0,1.172402263E0
8.134620312E0,1.866902709E-1,9.827268600E0,1.189152122E0
8.139584375E0,1.101237014E-1,9.944517136E0,1.167613864E0
8.144546875E0,8.380663395E-2,9.882307053E0,1.253757238E0
8.149509375E0,1.125083268E-1,9.870346069E0,1.272901297E0
8.154473437E0,1.053352952E-1,9.922988892E0,1.311189294E0
8.159437500E0,1.531905979E-1,9.918201447E0,1.306401014E0
8.164400000E0,1.292581707E-1,9.901451111E0,1.143691063E0
8.169364062E0,1.220851392E-1,9.958883286E0,1.215469122E0
8.174326562E0,1.340465695E-1,9.877518654E0,1.126941204E0
8.179289062E0,1.675462276E-1,9.939739227E0,1.167613864E0
8.184253125E0,1.986517012E-1,9.863162994E0,1.122152686E0
8.189215625E0,2.632568479E-1,9.875133514E0,1.213074923E0
8.194178125E0,3.206889629E-1,9.870346069E0,1.217863441E0
8.199142187E0,3.637558520E-1,9.870346069E0,1.131719947E0
8.204104687E0,4.570818543E-1,9.844018936E0,1.012086511E0
8.209068750E0,5.145043731E-1,9.875133514E0,1.050364971E0
8.214031250E0,5.671480894E-1,9.803345680E0,1.021653771E0
8.218995312E0,5.815037489E-1,9.793779373E0,1.052759290E0
8.223957812E0,5.719364882E-1,9.865556717E0,1.059941769E0
8.228921875E0,5.240811706E-1,9.817702293E0,1.172402263E0
8.233884375E0,5.145043731E-1,9.793779373E0,1.237007499E0
8.238846875E0,5.432252288E-1,9.784202576E0,1.282468557E0
8.243810937E0,5.934747458E-1,9.793779373E0,1.320756555E0
8.248773437E0,5.049371123E-1,9.832057953E0,1.280074358E0
8.253735937E0,4.546876252E-1,9.815307617E0,1.335112214E0
8.258700000E0,4.211879671E-1,9.779414177E0,1.354256272E0
8.263664062E0,2.608722150E-1,9.848807335E0,1.304006696E0
8.268626562E0,2.369397730E-1,9.822490692E0,1.270507097E0
8.273589062E0,1.795076579E-1,9.820096016E0,1.258545637E0
8.278553125E0,7.902780920E-2,9.865556717E0,1.318362474E0
8.283515625E0,9.634267539E-3,9.834450722E0,1.299218416E0
8.288479687E0,5.746084207E-5,9.841633797E0,1.301612496E0
8.293442187E0,5.746084207E-5,9.899056435E0,1.258545637E0
8.298404687E0,-9.804734588E-2,9.832057953E0,1.222651720E0
8.303367187E0,-8.369170874E-2,9.810519218E0,1.088653088E0
8.308331250E0,-9.509769268E-3,9.800951958E0,1.071903229E0
8.313293750E0,-1.669237576E-2,9.805740356E0,1.026442170E0
8.318257812E0,2.877830528E-2,9.731558800E0,9.115875363E-1
8.323221875E0,2.877830528E-2,9.769846916E0,9.379045963E-1
8.328184375E0,-4.721365869E-3,9.793779373E0,8.828666210E-1
8.333146875E0,-7.115567569E-3,9.748308182E0,9.187605381E-1
8.338109375E0,1.920149848E-2,9.733952522E0,9.857599139E-1
8.343073437E0,-4.721365869E-3,9.743529320E0,1.014471173E0
8.348035937E0,-1.190397050E-2,9.846412659E0,1.026442170E0
8.353000000E0,-4.540364072E-2,9.777029037E0,9.929425120E-1
8.357962500E0,-6.215347722E-2,9.832057953E0,9.953366518E-1
8.362926562E0,-1.243644133E-1,9.721991539E0,9.163663387E-1
8.367889062E0,-8.129751682E-2,9.793779373E0,9.833656549E-1
8.372851562E0,-7.172070444E-2,9.788990021E0,9.402987957E-1
8.377815625E0,-1.908657700E-2,9.757884979E0,9.546543956E-1
8.382778125E0,-7.411490381E-2,9.760279655E0,9.857599139E-1
8.387742187E0,2.451662440E-3,9.779414177E0,9.474717975E-1
8.392704687E0,-7.890331000E-2,9.767452240E0,9.594427943E-1
8.397668750E0,-6.933607906E-2,9.774634361E0,1.004903913E0
8.402631250E0,-7.411490381E-2,9.784202576E0,1.160440803E0
8.407593750E0,-6.454767287E-2,9.745914459E0,1.136508465E0
8.412557812E0,-7.650911063E-2,9.743529320E0,1.074297428E0
8.417520312E0,-4.779784381E-2,9.736346245E0,1.012086511E0
8.422484375E0,-5.258624628E-2,9.731558800E0,9.642215967E-1
8.427446875E0,1.920149848E-2,9.695664406E0,9.785868526E-1
8.432409375E0,-1.908657700E-2,9.674136162E0,9.522601962E-1
8.437373437E0,-4.721365869E-3,9.688490868E0,1.002509713E0
8.442335937E0,1.340465695E-1,9.678915024E0,1.036009431E0
8.447300000E0,2.082285136E-1,9.690885544E0,1.083864689E0
8.452262500E0,2.489012182E-1,9.664558411E0,9.881540537E-1
8.457225000E0,2.943718731E-1,9.707635880E0,1.002509713E0
8.462189062E0,3.015449345E-1,9.693280220E0,1.004903913E0
8.467151562E0,3.111217320E-1,9.683703423E0,9.355103970E-1
8.472115625E0,3.470060229E-1,9.669347763E0,9.307219982E-1
8.477078125E0,3.182947338E-1,9.676529884E0,9.809715152E-1
8.482042187E0,2.106227130E-1,9.686098099E0,8.780878186E-1
8.487004687E0,8.141243458E-2,9.779414177E0,8.900492787E-1
8.491968750E0,5.988377333E-2,9.714808464E0,9.020106792E-1
8.496931250E0,7.240065839E-3,9.772240639E0,8.828666210E-1
8.501893750E0,1.920149848E-2,9.781807899E0,8.996165395E-1
8.506857812E0,5.270116776E-2,9.781807899E0,8.685110211E-1
8.511820312E0,-2.147120051E-2,9.829663277E0,8.996165395E-1
8.516784375E0,9.634267539E-3,9.855990410E0,9.761926532E-1
8.521746875E0,2.451662440E-3,9.889489174E0,1.000115514E0
8.526709375E0,-8.369170874E-2,9.932557106E0,9.929425120E-1
8.531673437E0,-1.506910622E-1,9.918201447E0,1.014471173E0
8.536635937E0,-1.674408913E-1,9.966055870E0,9.498660564E-1
8.541600000E0,-2.152961940E-1,9.997160912E0,1.019259572E0
8.546562500E0,-2.679399252E-1,1.001870060E1,1.071903229E0
8.551526562E0,-2.392190546E-1,1.008809376E1,1.131719947E0
8.556489062E0,-2.583630979E-1,1.003305531E1,1.095826149E0
8.561451562E0,-2.655456960E-1,1.004741096E1,1.205901980E0
8.566415625E0,-1.961521655E-1,1.010962200E1,1.263324499E0
8.571378125E0,-1.746139228E-1,1.011680508E1,1.359044671E0
8.576342187E0,-2.009405643E-1,1.013355446E1,1.464322567E0
8.581304687E0,-1.961521655E-1,1.013355446E1,1.500216365E0
8.586268750E0,-1.171913818E-1,1.011919880E1,1.555254221E0
8.591231250E0,-5.736507475E-2,1.018859291E1,1.560042739E0
8.596193750E0,-1.429817267E-2,1.009048748E1,1.634215117E0
8.601157812E0,2.398990095E-2,1.008809376E1,1.581571341E0
8.606120312E0,1.364407688E-1,1.002588272E1,1.514572024E0
8.611084375E0,2.201899439E-1,9.949306488E0,1.473899245E0
8.616046875E0,1.866902709E-1,1.000434399E1,1.385361671E0
8.621010937E0,1.436233670E-1,1.000195026E1,1.342294812E0
8.625973437E0,1.699404269E-1,9.966055870E0,1.385361671E0
8.630935937E0,1.938728839E-1,9.903844833E0,1.349467874E0
8.635900000E0,2.752278447E-1,9.875133514E0,1.337506413E0
8.640862500E0,3.039391041E-1,9.903844833E0,1.459543705E0
8.645826562E0,2.991507351E-1,9.911018372E0,1.404505730E0
8.650789062E0,3.015449345E-1,9.896661758E0,1.308795214E0
8.655753125E0,2.584780157E-1,9.908634186E0,1.265718579E0
8.660715625E0,7.184520364E-2,1.000195026E1,1.181969523E0
8.665678125E0,5.270116776E-2,9.939739227E0,1.055153489E0
8.670642187E0,-4.721365869E-3,9.930162430E0,1.079076290E0
8.675604687E0,-1.291528195E-1,9.958883286E0,1.071903229E0
8.680568750E0,-1.339412183E-1,9.949306488E0,1.081470490E0
8.685531250E0,-1.961521655E-1,9.882307053E0,1.069509029E0
8.690495312E0,-2.320460379E-1,9.848807335E0,1.019259572E0
8.695457812E0,-2.727187276E-1,9.844018936E0,1.091047287E0
8.700420312E0,-2.152961940E-1,9.827268600E0,1.088653088E0
8.705384375E0,-1.722197086E-1,9.853595734E0,1.076691628E0
8.710346875E0,-1.889695525E-1,9.774634361E0,1.134114146E0
8.715310937E0,-1.267586201E-1,9.796163559E0,1.174796462E0
8.720273437E0,-1.411142498E-1,9.762663841E0,1.150864005E0
8.725237500E0,-8.369170874E-2,9.779414177E0,1.208296180E0
8.730200000E0,-1.650466919E-1,9.741134644E0,1.222651720E0
8.735162500E0,-1.889695525E-1,9.700452805E0,1.136508465E0
8.740126562E0,-9.086474776E-2,9.721991539E0,1.232218981E0
8.745089062E0,-4.721365869E-3,9.729164124E0,1.315968156E0
8.750053125E0,1.507963985E-1,9.676529884E0,1.304006696E0
8.755015625E0,2.991507351E-1,9.690885544E0,1.354256272E0
8.759978125E0,4.738316536E-1,9.654992104E0,1.292045236E0
8.764942187E0,4.881873131E-1,9.700452805E0,1.368611932E0
8.769904687E0,5.767248273E-1,9.650202751E0,1.244190097E0
8.774867187E0,6.508972645E-1,9.700452805E0,1.244190097E0
8.779831250E0,5.982535481E-1,9.666953087E0,1.193940520E0
8.784795312E0,6.341474056E-1,9.654992104E0,1.330323815E0
8.789757812E0,7.131082416E-1,9.712413788E0,1.210690260E0
8.794721875E0,5.551866293E-1,9.590386391E0,1.256151438E0
8.799684375E0,5.503982306E-1,9.647809982E0,1.447572589E0
8.804646875E0,5.336483717E-1,9.674136162E0,1.430822849E0
8.809610937E0,5.025429130E-1,9.686098099E0,1.461928368E0
8.814573437E0,4.331493974E-1,9.602347374E0,1.560042739E0
8.819537500E0,4.068323374E-1,9.681308746E0,1.507398963E0
8.824500000E0,3.757268786E-1,9.688490868E0,1.567215681E0
8.829464062E0,4.020439088E-1,9.695664406E0,1.543292880E0
8.834426562E0,4.522934258E-1,9.678915024E0,1.579177141E0
8.839389062E0,4.738316536E-1,9.717203140E0,1.483466506E0
8.844353125E0,4.881873131E-1,9.686098099E0,1.478678107E0
8.849315625E0,4.833988845E-1,9.695664406E0,1.414072990E0
8.854279687E0,5.743306875E-1,9.683703423E0,1.320756555E0
8.859242187E0,6.293590069E-1,9.733952522E0,1.268112898E0
8.864206250E0,6.006477475E-1,9.707635880E0,1.165219545E0
8.869168750E0,5.743306875E-1,9.683703423E0,1.129325747E0
8.874131250E0,5.815037489E-1,9.702846527E0,1.158046603E0
8.879095312E0,5.958592892E-1,9.721991539E0,1.136508465E0
8.884057812E0,5.384368300E-1,9.707635880E0,1.134114146E0
8.889020312E0,5.838978887E-1,9.733952522E0,1.069509029E0
8.893984375E0,4.403319955E-1,9.714808464E0,1.083864689E0
8.898946875E0,3.876882792E-1,9.678915024E0,1.074297428E0
8.903910937E0,3.733326793E-1,9.690885544E0,9.737984538E-1
8.908873437E0,3.924766779E-1,9.683703423E0,1.007298112E0
8.913837500E0,4.833988845E-1,9.693280220E0,1.019259572E0
8.918800000E0,5.001487136E-1,9.678915024E0,1.067114830E0
8.923764062E0,5.432252288E-1,9.686098099E0,1.055153489E0
8.928726562E0,4.666490853E-1,9.714808464E0,1.002509713E0
8.933689062E0,5.025429130E-1,9.712413788E0,9.546543956E-1
8.938653125E0,5.264754295E-1,9.724386215E0,1.009692311E0
8.943615625E0,5.360426307E-1,9.721991539E0,1.079076290E0
8.948579687E0,5.240811706E-1,9.700452805E0,1.189152122E0
8.953542187E0,5.312542319E-1,9.726778984E0,1.198719382E0
8.958504687E0,4.546876252E-1,9.714808464E0,1.196325064E0
8.963468750E0,3.805056810E-1,9.731558800E0,1.301612496E0
8.968431250E0,3.206889629E-1,9.765057564E0,1.382967472E0
8.973395312E0,3.182947338E-1,9.767452240E0,1.536110282E0
8.978357812E0,3.422271907E-1,9.772240639E0,1.540898681E0
8.983321875E0,3.039391041E-1,9.779414177E0,1.739502430E0
8.988284375E0,2.824008763E-1,9.772240639E0,1.648570657E0
8.993246875E0,2.536896169E-1,9.884700775E0,1.708397031E0
8.998210937E0,2.704394460E-1,9.834450722E0,1.717964292E0
9.003173437E0,3.159005344E-1,9.832057953E0,1.600715280E0
9.008137500E0,1.484021842E-1,9.844018936E0,1.665320516E0
9.013100000E0,1.531905979E-1,9.846412659E0,1.701214314E0
9.018064062E0,1.484021842E-1,9.884700775E0,1.624647856E0
9.023026562E0,1.484021842E-1,9.882307053E0,1.655753255E0
9.027990625E0,1.340465695E-1,9.836845398E0,1.574398279E0
9.032953125E0,1.627578288E-1,9.863162994E0,1.543292880E0
9.037915625E0,2.273725420E-1,9.855990410E0,1.579177141E0
9.042879687E0,2.489012182E-1,9.841633797E0,1.406899929E0
9.047842187E0,2.536896169E-1,9.820096016E0,1.284862638E0
9.052806250E0,3.111217320E-1,9.769846916E0,1.275295496E0
9.057768750E0,3.230831623E-1,9.808135033E0,1.256151438E0
9.062732812E0,3.828999102E-1,9.784202576E0,1.210690260E0
9.067695312E0,3.972555101E-1,9.803345680E0,1.155652523E0
9.072657812E0,4.092265368E-1,9.781807899E0,1.196325064E0
9.077621875E0,4.187937677E-1,9.765057564E0,1.184363604E0
9.082584375E0,4.163995683E-1,9.800951958E0,1.213074923E0
9.087548437E0,4.235821664E-1,9.762663841E0,1.241795778E0
9.092510937E0,3.828999102E-1,9.779414177E0,1.330323815E0
9.097473437E0,3.805056810E-1,9.757884979E0,1.392544270E0
9.102437500E0,3.206889629E-1,9.841633797E0,1.447572589E0
9.107400000E0,2.536896169E-1,9.796163559E0,1.512177706E0
9.112364062E0,2.680452466E-1,9.812912941E0,1.572004199E0
9.117326562E0,1.890844703E-1,9.829663277E0,1.524148822E0
9.122290625E0,2.058342993E-1,9.879913330E0,1.466716647E0
9.127253125E0,1.651520431E-1,9.810519218E0,1.445178509E0
9.132215625E0,2.871892750E-1,9.820096016E0,1.411678791E0
9.137179687E0,2.441223711E-1,9.858384132E0,1.476293445E0
9.142142187E0,2.106227130E-1,9.793779373E0,1.404505730E0
9.147106250E0,2.082285136E-1,9.846412659E0,1.311189294E0
9.152068750E0,2.010459006E-1,9.846412659E0,1.277689695E0
9.157032812E0,2.034401149E-1,9.774634361E0,1.131719947E0
9.161995312E0,2.321513742E-1,9.820096016E0,1.057547569E0
9.166957812E0,2.536896169E-1,9.750701904E0,1.059941769E0
9.171921875E0,3.230831623E-1,9.762663841E0,9.881540537E-1
9.176884375E0,2.895835042E-1,9.767452240E0,8.756936789E-1
9.181848437E0,3.063333035E-1,9.705241203E0,9.355103970E-1
9.186810937E0,2.967565060E-1,9.726778984E0,9.785868526E-1
9.191773437E0,3.063333035E-1,9.726778984E0,9.881540537E-1
9.196737500E0,3.111217320E-1,9.777029037E0,9.259431362E-1
9.201700000E0,2.704394460E-1,9.750701904E0,1.043192029E0
9.206664062E0,1.914786696E-1,9.779414177E0,1.100614548E0
9.211626562E0,2.369397730E-1,9.762663841E0,1.174796462E0
9.216590625E0,2.273725420E-1,9.765057564E0,1.134114146E0
9.221553125E0,1.747288406E-1,9.791384697E0,1.225046039E0
9.226515625E0,1.842960715E-1,9.784202576E0,1.189152122E0
9.231479687E0,2.536896169E-1,9.781807899E0,1.222651720E0
9.236442187E0,2.728336453E-1,9.757884979E0,1.184363604E0
9.241404687E0,3.541886210E-1,9.726778984E0,1.126941204E0
9.246368750E0,2.752278447E-1,9.710029602E0,1.126941204E0
9.251332812E0,3.206889629E-1,9.788990021E0,1.114970207E0
9.256295312E0,4.020439088E-1,9.750701904E0,1.045586228E0
9.261257812E0,3.374387920E-1,9.772240639E0,1.083864689E0
9.266221875E0,3.422271907E-1,9.777029037E0,1.103008628E0
9.271184375E0,3.254773617E-1,9.762663841E0,1.172402263E0
9.276148437E0,3.015449345E-1,9.760279655E0,1.201113582E0
9.281110937E0,3.876882792E-1,9.803345680E0,1.165219545E0
9.286073437E0,3.470060229E-1,9.786596298E0,1.196325064E0
9.291035937E0,3.613712192E-1,9.765057564E0,1.170008063E0
9.296000000E0,3.230831623E-1,9.798557281E0,1.253757238E0
9.300964062E0,2.225841433E-1,9.798557281E0,1.201113582E0
9.305926562E0,3.063333035E-1,9.760279655E0,1.225046039E0
9.310890625E0,2.369397730E-1,9.765057564E0,1.335112214E0
9.315853125E0,2.273725420E-1,9.748308182E0,1.325544953E0
9.320817187E0,2.632568479E-1,9.743529320E0,1.399717450E0
9.325779687E0,2.321513742E-1,9.726778984E0,1.411678791E0
9.330742187E0,1.771230400E-1,9.738740921E0,1.289651155E0
9.335706250E0,1.699404269E-1,9.793779373E0,1.406899929E0
9.340668750E0,2.106227130E-1,9.815307617E0,1.402111530E0
9.345632812E0,1.819018722E-1,9.808135033E0,1.418861270E0
9.350595312E0,2.512954175E-1,9.753096581E0,1.361438870E0
9.355557812E0,2.177957445E-1,9.762663841E0,1.332718015E0
9.360521875E0,1.699404269E-1,9.824884415E0,1.327939153E0
9.365484375E0,2.297571748E-1,9.784202576E0,1.327939153E0
9.370448437E0,2.967565060E-1,9.798557281E0,1.344689012E0
9.375410937E0,3.828999102E-1,9.772240639E0,1.339900613E0
9.380373437E0,3.972555101E-1,9.755491257E0,1.234613180E0
9.385335937E0,3.374387920E-1,9.698058128E0,1.222651720E0
9.390301562E0,4.235821664E-1,9.726778984E0,1.311189294E0
9.395262500E0,4.833988845E-1,9.741134644E0,1.325544953E0
9.400226562E0,4.570818543E-1,9.741134644E0,1.246574640E0
9.405189062E0,4.857930839E-1,9.731558800E0,1.227440238E0
9.410151562E0,4.498992264E-1,9.750701904E0,1.237007499E0
9.415115625E0,4.738316536E-1,9.719596863E0,1.313573956E0
9.420078125E0,5.456098914E-1,9.750701904E0,1.282468557E0
9.425042187E0,6.102245450E-1,9.726778984E0,1.225046039E0
9.430006250E0,6.006477475E-1,9.729164124E0,1.265718579E0
9.434968750E0,6.102245450E-1,9.762663841E0,1.203507662E0
9.439932812E0,6.054361463E-1,9.724386215E0,1.229824781E0
9.444893750E0,5.240811706E-1,9.757884979E0,1.198719382E0
9.449857812E0,5.264754295E-1,9.810519218E0,1.244190097E0
9.454821875E0,4.881873131E-1,9.829663277E0,1.239401579E0
9.459784375E0,4.522934258E-1,9.805740356E0,1.299218416E0
9.464748437E0,3.422271907E-1,9.765057564E0,1.394928932E0
9.469710937E0,3.087275028E-1,9.812912941E0,1.409294248E0
9.474673437E0,2.656510174E-1,9.796163559E0,1.473899245E0
9.479637500E0,2.106227130E-1,9.882307053E0,1.598321199E0
9.484600000E0,2.369397730E-1,9.867951393E0,1.519360304E0
9.489562500E0,1.627578288E-1,9.882307053E0,1.404505730E0
9.494526562E0,1.890844703E-1,9.875133514E0,1.359044671E0
9.499489062E0,1.627578288E-1,9.846412659E0,1.418861270E0
9.504453125E0,1.484021842E-1,9.817702293E0,1.371006131E0
9.509415625E0,1.771230400E-1,9.879913330E0,1.294439435E0
9.514379687E0,1.029410958E-1,9.896661758E0,1.256151438E0
9.519342187E0,1.890844703E-1,9.791384697E0,1.325544953E0
9.524306250E0,2.177957445E-1,9.872738838E0,1.366217613E0
9.529268750E0,2.417281866E-1,9.800951958E0,1.342294812E0
9.534231250E0,2.154015303E-1,9.808135033E0,1.366217613E0
9.539195312E0,2.106227130E-1,9.810519218E0,1.366217613E0
9.544157812E0,2.225841433E-1,9.817702293E0,1.442793846E0
9.549121875E0,1.962575018E-1,9.777029037E0,1.359044671E0
9.554084375E0,2.584780157E-1,9.796163559E0,1.418861270E0
9.559046875E0,3.015449345E-1,9.812912941E0,1.332718015E0
9.564010937E0,2.560837865E-1,9.827268600E0,1.368611932E0
9.568973437E0,2.824008763E-1,9.788990021E0,1.315968156E0
9.573935937E0,2.728336453E-1,9.793779373E0,1.253757238E0
9.578900000E0,2.225841433E-1,9.834450722E0,1.311189294E0
9.583864062E0,2.369397730E-1,9.839240074E0,1.277689695E0
9.588826562E0,1.747288406E-1,9.858384132E0,1.359044671E0
9.593789062E0,2.441223711E-1,9.786596298E0,1.292045236E0
9.598753125E0,2.776220441E-1,9.769846916E0,1.289651155E0
9.603715625E0,2.417281866E-1,9.800951958E0,1.256151438E0
9.608679687E0,2.393339872E-1,9.774634361E0,1.234613180E0
9.613642187E0,1.675462276E-1,9.788990021E0,1.126941204E0
9.618606250E0,1.579789966E-1,9.772240639E0,1.091047287E0
9.623568750E0,2.082285136E-1,9.760279655E0,1.114970207E0
9.628531250E0,2.201899439E-1,9.707635880E0,1.095826149E0
9.633495312E0,2.895835042E-1,9.714808464E0,1.129325747E0
9.638457812E0,3.613712192E-1,9.702846527E0,1.079076290E0
9.643421875E0,4.140053689E-1,9.733952522E0,1.150864005E0
9.648384375E0,3.494002223E-1,9.769846916E0,1.179575324E0
9.653348437E0,3.374387920E-1,9.733952522E0,1.244190097E0
9.658310937E0,2.824008763E-1,9.710029602E0,1.148469806E0
9.663273437E0,2.584780157E-1,9.736346245E0,1.251363039E0
9.668237500E0,2.536896169E-1,9.712413788E0,1.213074923E0
9.673200000E0,2.584780157E-1,9.753096581E0,1.241795778E0
9.678162500E0,2.824008763E-1,9.755491257E0,1.237007499E0
9.683126562E0,2.800066769E-1,9.686098099E0,1.229824781E0
9.688089062E0,2.991507351E-1,9.745914459E0,1.237007499E0
9.693053125E0,3.470060229E-1,9.721991539E0,1.265718579E0
9.698015625E0,4.546876252E-1,9.721991539E0,1.215469122E0
9.702978125E0,4.116111398E-1,9.774634361E0,1.323150754E0
9.707942187E0,4.379377961E-1,9.745914459E0,1.394928932E0
9.712904687E0,4.140053689E-1,9.729164124E0,1.347073555E0
9.717868750E0,4.116111398E-1,9.748308182E0,1.208296180E0
9.722831250E0,3.972555101E-1,9.753096581E0,1.332718015E0
9.727795312E0,3.517944217E-1,9.750701904E0,1.323150754E0
9.732757812E0,2.728336453E-1,9.760279655E0,1.380573392E0
9.737721875E0,2.465070039E-1,9.781807899E0,1.390150189E0
9.742684375E0,2.608722150E-1,9.784202576E0,1.378179073E0
9.747646875E0,1.866902709E-1,9.803345680E0,1.390150189E0
9.752610937E0,1.460079998E-1,9.839240074E0,1.399717450E0
9.757573437E0,1.029410958E-1,9.812912941E0,1.485860705E0
9.762537500E0,3.834553435E-2,9.841633797E0,1.363823533E0
9.767500000E0,-4.721365869E-3,9.891883850E0,1.330323815E0
9.772464062E0,-1.076145768E-1,9.853595734E0,1.296824098E0
9.777426562E0,-1.435084492E-1,9.875133514E0,1.227440238E0
9.782389062E0,-1.482968628E-1,9.844018936E0,1.258545637E0
9.787353125E0,-9.804734588E-2,9.798557281E0,1.179575324E0
9.792315625E0,-7.650911063E-2,9.803345680E0,1.215469122E0
9.797279687E0,-9.509769268E-3,9.832057953E0,1.114970207E0
9.802242187E0,2.638410218E-2,9.767452240E0,1.074297428E0
9.807204687E0,1.196909323E-1,9.765057564E0,1.193940520E0
9.812168750E0,1.460079998E-1,9.812912941E0,1.100614548E0
9.817131250E0,1.675462276E-1,9.762663841E0,1.122152686E0
9.822095312E0,1.555848122E-1,9.808135033E0,1.103008628E0
9.827057812E0,2.369397730E-1,9.748308182E0,1.134114146E0
9.832021875E0,2.728336453E-1,9.784202576E0,1.174796462E0
9.836984375E0,2.895835042E-1,9.736346245E0,1.146075726E0
9.841946875E0,3.254773617E-1,9.714808464E0,1.158046603E0
9.846910937E0,3.063333035E-1,9.719596863E0,1.165219545E0
9.851873437E0,3.111217320E-1,9.733952522E0,1.150864005E0
9.856837500E0,3.446213901E-1,9.700452805E0,1.210690260E0
9.861800000E0,3.422271907E-1,9.760279655E0,1.241795778E0
9.866764062E0,3.733326793E-1,9.717203140E0,1.256151438E0
9.871726562E0,4.044381380E-1,9.690885544E0,1.308795214E0
9.876689062E0,4.163995683E-1,9.698058128E0,1.344689012E0
9.881653125E0,4.666490853E-1,9.705241203E0,1.342294812E0
9.886615625E0,3.900824785E-1,9.710029602E0,1.382967472E0
9.891579687E0,3.661500514E-1,9.717203140E0,1.452361107E0
9.896542187E0,3.733326793E-1,9.681308746E0,1.430822849E0
9.901504687E0,3.972555101E-1,9.724386215E0,1.423649788E0
9.906468750E0,4.211879671E-1,9.772240639E0,1.402111530E0
9.911431250E0,4.092265368E-1,9.750701904E0,1.308795214E0
9.916395312E0,4.403319955E-1,9.741134644E0,1.287256956E0
9.921357812E0,4.235821664E-1,9.743529320E0,1.284862638E0
9.926320312E0,3.350445926E-1,9.714808464E0,1.332718015E0
9.931284375E0,3.398329914E-1,9.765057564E0,1.356650352E0
9.936246875E0,2.824008763E-1,9.788990021E0,1.375794411E0
9.941210937E0,2.680452466E-1,9.765057564E0,1.344689012E0
9.946175000E0,2.680452466E-1,9.793779373E0,1.325544953E0
9.951137500E0,1.866902709E-1,9.793779373E0,1.347073555E0
9.956100000E0,4.073973373E-2,9.887095451E0,1.299218416E0
9.961064062E0,-4.779784381E-2,9.844018936E0,1.337506413E0
9.966026562E0,-4.721365869E-3,9.901451111E0,1.363823533E0
9.970990625E0,3.355713189E-2,9.879913330E0,1.445178509E0
9.975953125E0,3.355713189E-2,9.896661758E0,1.382967472E0
9.980915625E0,4.313393682E-2,9.887095451E0,1.356650352E0
9.985879687E0,4.791276529E-2,9.884700775E0,1.277689695E0
9.990842187E0,6.705679744E-2,9.879913330E0,1.289651155E0
9.995806250E0,1.101237014E-1,9.832057953E0,1.196325064E0
1.000076875E1,1.316523552E-1,9.834450722E0,1.107797146E0
1.000573125E1,1.196909323E-1,9.884700775E0,1.155652523E0
1.001069531E1,2.034401149E-1,9.810519218E0,1.071903229E0
1.001565781E1,1.675462276E-1,9.796163559E0,1.103008628E0
1.002062188E1,1.484021842E-1,9.846412659E0,1.165219545E0
1.002558438E1,1.675462276E-1,9.781807899E0,1.193940520E0
1.003054688E1,1.579789966E-1,9.882307053E0,1.241795778E0
1.003551094E1,1.388349682E-1,9.870346069E0,1.347073555E0
1.004047500E1,1.388349682E-1,9.808135033E0,1.406899929E0
1.004543750E1,1.101237014E-1,9.824884415E0,1.461928368E0
1.005040000E1,1.579789966E-1,9.779414177E0,1.454755306E0
1.005536250E1,2.297571748E-1,9.810519218E0,1.399717450E0
1.006032656E1,2.776220441E-1,9.762663841E0,1.301612496E0
1.006529063E1,3.182947338E-1,9.767452240E0,1.342294812E0
1.007025312E1,3.446213901E-1,9.788990021E0,1.284862638E0
1.007521719E1,2.943718731E-1,9.743529320E0,1.313573956E0
1.008017969E1,3.206889629E-1,9.686098099E0,1.306401014E0
1.008514219E1,3.900824785E-1,9.733952522E0,1.306401014E0
1.009010625E1,3.709384501E-1,9.745914459E0,1.244190097E0
1.009506875E1,3.446213901E-1,9.686098099E0,1.107797146E0
1.010003125E1,3.254773617E-1,9.753096581E0,1.138902545E0
1.010499531E1,2.369397730E-1,9.712413788E0,1.081470490E0
1.010995781E1,2.225841433E-1,9.760279655E0,1.057547569E0
1.011492188E1,2.010459006E-1,9.750701904E0,1.045586228E0
1.011988438E1,2.441223711E-1,9.729164124E0,1.055153489E0
1.012484688E1,2.560837865E-1,9.793779373E0,1.043192029E0
1.012981094E1,3.182947338E-1,9.729164124E0,1.086258888E0
1.013477344E1,2.919777036E-1,9.721991539E0,1.208296180E0
1.013973594E1,2.560837865E-1,9.690885544E0,1.160440803E0
1.014470000E1,3.254773617E-1,9.700452805E0,1.162825465E0
1.014966406E1,3.302561939E-1,9.736346245E0,1.172402263E0
1.015462656E1,3.948709071E-1,9.724386215E0,1.282468557E0
1.015958906E1,4.355435967E-1,9.769846916E0,1.418861270E0
1.016455156E1,4.690432847E-1,9.808135033E0,1.452361107E0
1.016951562E1,4.379377961E-1,9.743529320E0,1.442793846E0
1.017447969E1,4.427261949E-1,9.717203140E0,1.449966788E0
1.017944219E1,4.786105156E-1,9.745914459E0,1.478678107E0
1.018440469E1,4.235821664E-1,9.779414177E0,1.471505165E0
1.018936875E1,3.422271907E-1,9.791384697E0,1.495427966E0
1.019433125E1,3.613712192E-1,9.736346245E0,1.509793162E0
1.019929375E1,3.039391041E-1,9.774634361E0,1.507398963E0
1.020425781E1,3.757268786E-1,9.832057953E0,1.426043987E0
1.020922031E1,3.326503932E-1,9.798557281E0,1.402111530E0
1.021418438E1,3.326503932E-1,9.777029037E0,1.304006696E0
1.021914844E1,3.613712192E-1,9.817702293E0,1.258545637E0
1.022411094E1,4.092265368E-1,9.772240639E0,1.327939153E0
1.022907344E1,3.852941096E-1,9.805740356E0,1.299218416E0
1.023403594E1,4.498992264E-1,9.824884415E0,1.359044671E0
1.023900000E1,3.948709071E-1,9.784202576E0,1.292045236E0
1.024396250E1,4.618606567E-1,9.834450722E0,1.356650352E0
1.024892656E1,4.714374840E-1,9.808135033E0,1.339900613E0
1.025388906E1,4.905815125E-1,9.788990021E0,1.325544953E0
1.025885312E1,4.977545440E-1,9.851201057E0,1.375794411E0
1.026381719E1,4.953603148E-1,9.832057953E0,1.406899929E0
1.026877969E1,5.240811706E-1,9.827268600E0,1.409294248E0
1.027374219E1,5.168985724E-1,9.832057953E0,1.414072990E0
1.027870469E1,5.097255707E-1,9.791384697E0,1.433217049E0
1.028366875E1,4.522934258E-1,9.839240074E0,1.430822849E0
1.028863281E1,3.972555101E-1,9.860768318E0,1.438005328E0
1.029359375E1,3.254773617E-1,9.855990410E0,1.473899245E0
1.029855781E1,2.632568479E-1,9.879913330E0,1.469110847E0
1.030352188E1,1.866902709E-1,9.884700775E0,1.471505165E0
1.030848438E1,1.531905979E-1,9.915806770E0,1.598321199E0
