"Time (s)","Gyroscope x (rad/s)","Gyroscope y (rad/s)","Gyroscope z (rad/s)"
0.000000000E0,6.201154739E-2,-1.934522986E-1,7.530397773E-1
4.962500000E-3,6.201154739E-2,-1.934522986E-1,7.530397773E-1
9.925000000E-3,0.000000000E0,0.000000000E0,0.000000000E0
1.488906200E-2,5.270894151E-3,-1.202531811E-2,1.338667516E-2
1.985312500E-2,5.270894151E-3,-1.202531811E-2,1.338667516E-2
2.481718700E-2,1.610938832E-2,-3.071779385E-2,2.417281084E-2
2.977968700E-2,1.610938832E-2,-3.071779385E-2,2.417281084E-2
3.474218700E-2,3.666936606E-2,-6.656685472E-2,3.153809905E-2
3.970468700E-2,3.666936606E-2,-6.656685472E-2,3.153809905E-2
4.466718700E-2,4.434357882E-1,-9.434900880E-1,1.709724516E-1
4.963281200E-2,4.434357882E-1,-9.434900880E-1,1.709724516E-1
5.459531200E-2,4.900535345E-1,-1.144813776E0,5.455899239E-2
5.955781200E-2,4.900535345E-1,-1.144813776E0,5.455899239E-2
6.452187500E-2,5.716127753E-1,-1.417643666E0,-2.631956525E-2
6.948437500E-2,5.716127753E-1,-1.417643666E0,-2.631956525E-2
7.444843700E-2,6.201329231E-1,-1.586818457E0,-1.046324894E-1
7.941093700E-2,6.201329231E-1,-1.586818457E0,-1.046324894E-1
8.437500000E-2,6.462081671E-1,-1.735991716E0,-2.412917614E-1
8.933593700E-2,6.462081671E-1,-1.735991716E0,-2.412917614E-1
9.430000000E-2,6.458241940E-1,-1.816625953E0,-3.344574571E-1
9.926250000E-2,6.458241940E-1,-1.816625953E0,-3.344574571E-1
1.042265620E-1,6.143209934E-1,-1.854080677E0,-4.668057561E-1
1.091906250E-1,6.143209934E-1,-1.854080677E0,-4.668057561E-1
1.141531250E-1,5.663418770E-1,-1.848495603E0,-5.927312374E-1
1.191171870E-1,5.663418770E-1,-1.848495603E0,-5.927312374E-1
1.240796870E-1,5.156400800E-1,-1.784843445E0,-6.644468307E-1
1.290421870E-1,5.156400800E-1,-1.784843445E0,-6.644468307E-1
1.340046870E-1,4.676086009E-1,-1.703598380E0,-6.820572019E-1
1.389687500E-1,4.676086009E-1,-1.703598380E0,-6.820572019E-1
1.439328120E-1,4.248654842E-1,-1.594428062E0,-6.606420279E-1
1.488953120E-1,4.248654842E-1,-1.594428062E0,-6.606420279E-1
1.538578120E-1,3.848451078E-1,-1.478974581E0,-6.263114214E-1
1.588218750E-1,3.848451078E-1,-1.478974581E0,-6.263114214E-1
1.637843750E-1,3.473030627E-1,-1.353118896E0,-5.861862898E-1
1.687484370E-1,3.473030627E-1,-1.353118896E0,-5.861862898E-1
1.737109370E-1,3.108780384E-1,-1.252500653E0,-5.540722013E-1
1.786734370E-1,3.108780384E-1,-1.252500653E0,-5.540722013E-1
1.836359370E-1,2.783276439E-1,-1.161464214E0,-5.230926275E-1
1.886015620E-1,2.783276439E-1,-1.161464214E0,-5.230926275E-1
1.935640620E-1,2.487966865E-1,-1.075855851E0,-4.853062630E-1
1.985265620E-1,2.487966865E-1,-1.075855851E0,-4.853062630E-1
2.034906250E-1,2.202780098E-1,-9.806132317E-1,-4.473627806E-1
2.084531250E-1,2.202780098E-1,-9.806132317E-1,-4.473627806E-1
2.134156250E-1,1.916720569E-1,-8.761901855E-1,-4.109203219E-1
2.183796870E-1,1.916720569E-1,-8.761901855E-1,-4.109203219E-1
2.233421870E-1,1.614080518E-1,-7.772300243E-1,-3.764500618E-1
2.283046870E-1,1.614080518E-1,-7.772300243E-1,-3.764500618E-1
2.332687500E-1,1.334129721E-1,-6.847101450E-1,-3.467445672E-1
2.382328120E-1,1.334129721E-1,-6.847101450E-1,-3.467445672E-1
2.431953120E-1,1.096241325E-1,-6.130818129E-1,-3.231651485E-1
2.481578120E-1,1.096241325E-1,-6.130818129E-1,-3.231651485E-1
2.531203120E-1,8.990190923E-2,-5.487315059E-1,-3.027273715E-1
2.580843750E-1,8.990190923E-2,-5.487315059E-1,-3.027273715E-1
2.630468750E-1,1.471312530E-2,-9.770353138E-2,-5.534439161E-2
2.680109370E-1,1.471312530E-2,-9.770353138E-2,-5.534439161E-2
2.729734370E-1,1.401499379E-2,-9.843657166E-2,-5.684537441E-2
2.779359370E-1,1.401499379E-2,-9.843657166E-2,-5.684537441E-2
2.829015620E-1,1.356120780E-2,-1.012465507E-1,-5.909684673E-2
2.878640620E-1,1.356120780E-2,-1.012465507E-1,-5.909684673E-2
2.928281250E-1,1.347394194E-2,-1.067094281E-1,-6.150540337E-2
2.977906250E-1,1.347394194E-2,-1.067094281E-1,-6.150540337E-2
3.027531250E-1,7.024950534E-2,-5.660626292E-1,-3.282615244E-1
3.077156250E-1,7.024950534E-2,-5.660626292E-1,-3.282615244E-1
3.126796870E-1,6.361725181E-2,-5.296376348E-1,-3.113842010E-1
3.176421870E-1,6.361725181E-2,-5.296376348E-1,-3.113842010E-1
3.226046870E-1,6.436774135E-2,-5.370029211E-1,-3.109478652E-1
3.275687500E-1,6.436774135E-2,-5.370029211E-1,-3.109478652E-1
3.325312500E-1,8.114035428E-2,-6.056641340E-1,-3.271968663E-1
3.374953120E-1,8.114035428E-2,-6.056641340E-1,-3.271968663E-1
3.424578120E-1,1.064650863E-1,-7.020238042E-1,-3.547032773E-1
3.474203120E-1,1.064650863E-1,-7.020238042E-1,-3.547032773E-1
3.523843750E-1,1.269203424E-1,-7.862184644E-1,-3.802374303E-1
3.573484370E-1,1.269203424E-1,-7.862184644E-1,-3.802374303E-1
3.623109370E-1,1.326624751E-1,-8.222594857E-1,-3.955788612E-1
3.672734370E-1,1.326624751E-1,-8.222594857E-1,-3.955788612E-1
3.722375000E-1,1.225221157E-1,-7.914544344E-1,-3.931877613E-1
3.772000000E-1,1.225221157E-1,-7.914544344E-1,-3.931877613E-1
3.821640620E-1,1.043008789E-1,-7.197912335E-1,-3.724183440E-1
3.871265620E-1,1.043008789E-1,-7.197912335E-1,-3.724183440E-1
3.920906250E-1,8.672541380E-2,-6.372197270E-1,-3.354348242E-1
3.970531250E-1,8.672541380E-2,-6.372197270E-1,-3.354348242E-1
4.020171870E-1,7.538077235E-2,-5.637762547E-1,-2.939483523E-1
4.069796870E-1,7.538077235E-2,-5.637762547E-1,-2.939483523E-1
4.119437500E-1,6.052801758E-2,-4.795117676E-1,-2.536661625E-1
4.169062500E-1,6.052801758E-2,-4.795117676E-1,-2.536661625E-1
4.218687500E-1,3.722787276E-2,-3.801327050E-1,-2.168222517E-1
4.268328120E-1,3.722787276E-2,-3.801327050E-1,-2.168222517E-1
4.317953120E-1,1.532399096E-2,-2.924822867E-1,-1.871342063E-1
4.367578120E-1,1.532399096E-2,-2.924822867E-1,-1.871342063E-1
4.417218750E-1,3.316125658E-4,-2.270847857E-1,-1.643052995E-1
4.466859370E-1,3.316125658E-4,-2.270847857E-1,-1.643052995E-1
4.516484370E-1,-9.058258496E-3,-1.670280099E-1,-1.373399645E-1
4.566109370E-1,-9.058258496E-3,-1.670280099E-1,-1.373399645E-1
4.615734370E-1,-1.743583940E-2,-1.048419252E-1,-1.082278639E-1
4.665375000E-1,-1.743583940E-2,-1.048419252E-1,-1.082278639E-1
4.715000000E-1,-2.309070528E-2,-5.635667965E-2,-8.351400495E-2
4.764625000E-1,-2.309070528E-2,-5.635667965E-2,-8.351400495E-2
4.814265620E-1,-2.401573025E-2,-3.445279971E-2,-6.640977412E-2
4.863890620E-1,-2.401573025E-2,-3.445279971E-2,-6.640977412E-2
4.913531250E-1,-2.022836544E-2,-2.092649788E-2,-5.307546258E-2
4.963156250E-1,-2.022836544E-2,-2.092649788E-2,-5.307546258E-2
5.012781250E-1,-1.612684131E-2,-1.361356769E-2,-4.295255244E-2
5.062421870E-1,-1.612684131E-2,-1.361356769E-2,-4.295255244E-2
5.112046870E-1,-2.775073517E-3,-3.525565146E-3,-7.888888009E-3
5.161687500E-1,-2.775073517E-3,-3.525565146E-3,-7.888888009E-3
5.211312500E-1,-2.251474652E-3,-6.283185445E-3,-8.569566533E-3
5.260953120E-1,-2.251474652E-3,-6.283185445E-3,-8.569566533E-3
5.310578120E-1,-1.256637042E-3,-9.320057929E-3,-9.075712413E-3
5.360218750E-1,-1.256637042E-3,-9.320057929E-3,-9.075712413E-3
5.409843750E-1,-1.047197584E-4,-1.268854365E-2,-9.564404376E-3
5.459468750E-1,-1.047197584E-4,-1.268854365E-2,-9.564404376E-3
5.509109370E-1,-8.901178953E-4,-7.187265903E-2,-4.953244328E-2
5.558734370E-1,-8.901178953E-4,-7.187265903E-2,-4.953244328E-2
5.608375000E-1,-5.777040031E-3,-7.271041721E-2,-4.537856206E-2
5.658000000E-1,-5.777040031E-3,-7.271041721E-2,-4.537856206E-2
5.707625000E-1,-8.726646192E-3,-8.093091846E-2,-4.204498231E-2
5.757265620E-1,-8.726646192E-3,-8.093091846E-2,-4.204498231E-2
5.806890620E-1,-9.948376566E-3,-1.006705910E-1,-4.007275775E-2
5.856531250E-1,-9.948376566E-3,-1.006705910E-1,-4.007275775E-2
5.906156250E-1,-9.424777701E-3,-1.204451695E-1,-3.860668465E-2
5.955796870E-1,-9.424777701E-3,-1.204451695E-1,-3.860668465E-2
6.005421870E-1,-1.012290921E-2,-1.102349982E-1,-3.178244457E-2
6.055046870E-1,-1.012290921E-2,-1.102349982E-1,-3.178244457E-2
6.104687500E-1,-1.153662615E-2,-8.929104358E-2,-2.078687213E-2
6.154328120E-1,-1.153662615E-2,-8.929104358E-2,-2.078687213E-2
6.203953120E-1,-1.253146399E-2,-7.649777830E-2,-4.502949305E-3
6.253593750E-1,-1.253146399E-2,-7.649777830E-2,-4.502949305E-3
6.303218750E-1,-1.007054932E-2,-3.733259439E-2,3.471459821E-2
6.352843750E-1,-1.007054932E-2,-3.733259439E-2,3.471459821E-2
6.402484370E-1,-3.700098023E-3,-2.799508162E-2,5.787511915E-2
6.452109370E-1,-3.700098023E-3,-2.799508162E-2,5.787511915E-2
6.501734370E-1,-2.373647876E-3,-4.841543362E-2,4.406956211E-2
6.551375000E-1,-2.373647876E-3,-4.841543362E-2,4.406956211E-2
6.601000000E-1,-1.745329209E-4,-7.319910824E-2,3.251548484E-2
6.650640620E-1,-1.745329209E-4,-7.319910824E-2,3.251548484E-2
6.700265620E-1,9.075712296E-4,-7.724827528E-2,3.492403775E-2
6.749906250E-1,9.075712296E-4,-7.724827528E-2,3.492403775E-2
6.799531250E-1,-2.164208330E-3,-6.206390634E-2,4.738568887E-2
6.849156250E-1,-2.164208330E-3,-6.206390634E-2,4.738568887E-2
6.898796870E-1,-8.395033889E-3,-4.511675984E-2,5.824163556E-2
6.948421870E-1,-8.395033889E-3,-4.511675984E-2,5.824163556E-2
6.998062500E-1,-1.298524998E-2,-4.284783453E-2,6.150540337E-2
7.047687500E-1,-1.298524998E-2,-4.284783453E-2,6.150540337E-2
7.097328120E-1,-1.506219152E-2,-4.843288660E-2,5.754350498E-2
7.146953120E-1,-1.506219152E-2,-4.843288660E-2,5.754350498E-2
7.196593750E-1,-3.769911081E-2,-2.234021435E-3,5.616469681E-2
7.246218750E-1,-3.769911081E-2,-2.234021435E-3,5.616469681E-2
7.295843750E-1,-8.028514683E-2,8.134979755E-2,5.939355493E-2
7.345484370E-1,-8.028514683E-2,8.134979755E-2,5.939355493E-2
7.395109370E-1,-1.243721619E-1,1.775174439E-1,6.646213681E-2
7.444750000E-1,-1.243721619E-1,1.775174439E-1,6.646213681E-2
7.494375000E-1,-1.510582417E-1,2.265088260E-1,7.012733072E-2
7.544000000E-1,-1.510582417E-1,2.265088260E-1,7.012733072E-2
7.593640620E-1,-1.538158655E-1,2.143613398E-1,6.482152641E-2
7.643265620E-1,-1.538158655E-1,2.143613398E-1,6.482152641E-2
7.692906250E-1,-1.441991031E-1,1.602735817E-1,5.443681777E-2
7.742531250E-1,-1.441991031E-1,1.602735817E-1,5.443681777E-2
7.792171870E-1,-1.326450258E-1,1.024508253E-1,4.202752933E-2
7.841796870E-1,-1.326450258E-1,1.024508253E-1,4.202752933E-2
7.891421870E-1,-1.211607531E-1,5.550146848E-2,2.761110850E-2
7.941062500E-1,-1.211607531E-1,5.550146848E-2,2.761110850E-2
7.990687500E-1,-1.129751652E-1,2.228785492E-2,1.221730467E-2
8.040328120E-1,-1.129751652E-1,2.228785492E-2,1.221730467E-2
8.089953120E-1,-1.080009714E-1,-3.473205259E-3,-4.642575979E-3
8.139593750E-1,-1.080009714E-1,-3.473205259E-3,-4.642575979E-3
8.189218750E-1,-1.069886833E-1,-2.892010473E-2,-1.879719645E-2
8.238843750E-1,-1.069886833E-1,-2.892010473E-2,-1.879719645E-2
8.288484370E-1,-1.109680310E-1,-1.136209350E-2,-2.408554405E-2
8.338109370E-1,-1.109680310E-1,-1.136209350E-2,-2.408554405E-2
8.387750000E-1,-1.148252115E-1,1.148426626E-2,-2.682571113E-2
8.437375000E-1,-1.148252115E-1,1.148426626E-2,-2.682571113E-2
8.487015620E-1,-1.192583442E-1,2.193878777E-2,-2.998475730E-2
8.536640620E-1,-1.192583442E-1,2.193878777E-2,-2.998475730E-2
8.586265620E-1,-1.240230948E-1,3.736750036E-2,-3.118903376E-2
8.635906250E-1,-1.240230948E-1,3.736750036E-2,-3.118903376E-2
8.685531250E-1,-1.222603172E-1,4.679227620E-2,-3.239331022E-2
8.735171870E-1,-1.222603172E-1,4.679227620E-2,-3.239331022E-2
8.784796870E-1,-1.158898622E-1,3.874630854E-2,-3.640756756E-2
8.834421870E-1,-1.158898622E-1,3.874630854E-2,-3.640756756E-2
8.884062500E-1,-1.094495952E-1,2.542944625E-2,-4.061381146E-2
8.933687500E-1,-1.094495952E-1,2.542944625E-2,-4.061381146E-2
8.983328120E-1,-1.059763953E-1,2.324778587E-2,-4.497713596E-2
9.032953120E-1,-1.059763953E-1,2.324778587E-2,-4.497713596E-2
9.082593750E-1,-1.039343551E-1,2.392846346E-2,-4.968952388E-2
9.132218750E-1,-1.039343551E-1,2.392846346E-2,-4.968952388E-2
9.181843750E-1,-1.049640998E-1,2.528982051E-2,-5.304055661E-2
9.231484370E-1,-1.049640998E-1,2.528982051E-2,-5.304055661E-2
9.281109370E-1,-2.122320421E-2,8.011061698E-3,-1.062905509E-2
9.330750000E-1,-2.122320421E-2,8.011061698E-3,-1.062905509E-2
9.380375000E-1,-2.459168993E-2,1.162389293E-2,-1.242674422E-2
9.430015620E-1,-2.459168993E-2,1.162389293E-2,-1.242674422E-2
9.479640620E-1,-2.937389165E-2,1.497492474E-2,-1.712168008E-2
9.529265620E-1,-2.937389165E-2,1.497492474E-2,-1.712168008E-2
9.578906250E-1,-3.766420484E-2,3.146828711E-2,-1.745329238E-2
9.628531250E-1,-3.766420484E-2,3.146828711E-2,-1.745329238E-2
9.678171870E-1,-2.326523811E-1,2.759191096E-1,-6.686356664E-2
9.727796870E-1,-2.326523811E-1,2.759191096E-1,-6.686356664E-2
9.777437500E-1,-2.391624600E-1,3.366740048E-1,-3.946189582E-2
9.827062500E-1,-2.391624600E-1,3.366740048E-1,-3.946189582E-2
9.876687500E-1,-2.245191485E-1,3.325375915E-1,-2.897246554E-2
9.926328120E-1,-2.245191485E-1,3.325375915E-1,-2.897246554E-2
9.975953120E-1,-1.923003793E-1,2.755525708E-1,-2.925171889E-2
1.002559375E0,-1.923003793E-1,2.755525708E-1,-2.925171889E-2
1.007521875E0,-1.570098251E-1,2.104692608E-1,-3.173008561E-2
1.012485937E0,-1.570098251E-1,2.104692608E-1,-3.173008561E-2
1.017448437E0,-1.321912408E-1,1.799783558E-1,-2.926917188E-2
1.022410937E0,-1.321912408E-1,1.799783558E-1,-2.926917188E-2
1.027375000E0,-1.118057892E-1,1.658237278E-1,-2.232276089E-2
1.032337500E0,-1.118057892E-1,1.658237278E-1,-2.232276089E-2
1.037301562E0,-6.241297349E-2,7.387978584E-2,-2.511528693E-2
1.042264062E0,-6.241297349E-2,7.387978584E-2,-2.511528693E-2
1.047228125E0,1.436406001E-2,-8.546877652E-2,-3.853686899E-2
1.052190625E0,1.436406001E-2,-8.546877652E-2,-3.853686899E-2
1.057153125E0,8.620180935E-2,-2.462834120E-1,-5.274384841E-2
1.062117187E0,8.620180935E-2,-2.462834120E-1,-5.274384841E-2
1.067079687E0,1.231155246E-1,-3.222750425E-1,-5.579817668E-2
1.072043750E0,1.231155246E-1,-3.222750425E-1,-5.579817668E-2
1.077006250E0,1.285958588E-1,-3.117856085E-1,-4.359832406E-2
1.081970312E0,1.285958588E-1,-3.117856085E-1,-4.359832406E-2
1.086932812E0,1.232027933E-1,-2.630036771E-1,-2.028072625E-2
1.091895312E0,1.232027933E-1,-2.630036771E-1,-2.028072625E-2
1.096859375E0,1.180715263E-1,-2.005208731E-1,7.120943163E-3
1.101821875E0,1.180715263E-1,-2.005208731E-1,7.120943163E-3
1.106785937E0,1.134638563E-1,-1.433613449E-1,2.783800103E-2
1.111748437E0,1.134638563E-1,-1.433613449E-1,2.783800103E-2
1.116712500E0,1.095543131E-1,-1.201833710E-1,3.420845419E-2
1.121675000E0,1.095543131E-1,-1.201833710E-1,3.420845419E-2
1.126637500E0,1.084024012E-1,-1.088038236E-1,3.103195317E-2
1.131601562E0,1.084024012E-1,-1.088038236E-1,3.103195317E-2
1.136564062E0,1.115614474E-1,-1.110727564E-1,1.733111963E-2
1.141528125E0,1.115614474E-1,-1.110727564E-1,1.733111963E-2
1.146490625E0,1.182809621E-1,-1.311265826E-1,-1.745329246E-5
1.151454687E0,1.182809621E-1,-1.311265826E-1,-1.745329246E-5
1.156417187E0,1.228537261E-1,-1.580395699E-1,-1.183333248E-2
1.161379687E0,1.228537261E-1,-1.580395699E-1,-1.183333248E-2
1.166343750E0,1.302713752E-1,-1.560847908E-1,-1.336922217E-2
1.171306250E0,1.302713752E-1,-1.560847908E-1,-1.336922217E-2
1.176270312E0,1.426806599E-1,-1.843940318E-1,-3.384193406E-2
1.181232812E0,1.426806599E-1,-1.843940318E-1,-3.384193406E-2
1.186195312E0,1.509709805E-1,-2.380629033E-1,-7.459536940E-2
1.191159375E0,1.509709805E-1,-2.380629033E-1,-7.459536940E-2
1.196121875E0,1.489987522E-1,-3.118903339E-1,-1.596801728E-1
1.201085937E0,1.489987522E-1,-3.118903339E-1,-1.596801728E-1
1.206048437E0,1.528559327E-1,-3.550348878E-1,-1.978330761E-1
1.211010937E0,1.528559327E-1,-3.550348878E-1,-1.978330761E-1
1.215975000E0,1.500284970E-1,-3.481059074E-1,-1.887049973E-1
1.220937500E0,1.500284970E-1,-3.481059074E-1,-1.887049973E-1
1.225900000E0,1.358564347E-1,-2.787814438E-1,-1.565734893E-1
1.230864062E0,1.358564347E-1,-2.787814438E-1,-1.565734893E-1
1.235826562E0,1.189267337E-1,-2.194751501E-1,-1.314756572E-1
1.240790625E0,1.189267337E-1,-2.194751501E-1,-1.314756572E-1
1.245753125E0,1.040041670E-1,-1.651255935E-1,-1.097113937E-1
1.250717187E0,1.040041670E-1,-1.651255935E-1,-1.097113937E-1
1.255679687E0,9.274679422E-2,-1.271123290E-1,-9.246754646E-2
1.260643750E0,9.274679422E-2,-1.271123290E-1,-9.246754646E-2
1.265606250E0,8.262388408E-2,-6.499606371E-2,-5.122541264E-2
1.270570312E0,8.262388408E-2,-6.499606371E-2,-5.122541264E-2
1.275532812E0,7.250097394E-2,4.555309191E-2,2.504547499E-2
1.280495312E0,7.250097394E-2,4.555309191E-2,2.504547499E-2
1.285459375E0,6.372196972E-2,1.470265388E-1,1.043532342E-1
1.290421875E0,6.372196972E-2,1.470265388E-1,1.043532342E-1
1.295385937E0,5.614724010E-2,2.657787502E-1,1.998576522E-1
1.300348437E0,5.614724010E-2,2.657787502E-1,1.998576522E-1
1.305312500E0,4.909611121E-2,3.390476704E-1,2.583611012E-1
1.310275000E0,4.909611121E-2,3.390476704E-1,2.583611012E-1
1.315239062E0,4.211479425E-2,3.607944548E-1,2.610838115E-1
1.320201562E0,4.211479425E-2,3.607944548E-1,2.610838115E-1
1.325164062E0,3.153809905E-2,3.358536959E-1,2.246413231E-1
1.330128125E0,3.153809905E-2,3.358536959E-1,2.246413231E-1
1.335090625E0,1.729621366E-2,3.277379274E-1,1.814444214E-1
1.340054687E0,1.729621366E-2,3.277379274E-1,1.814444214E-1
1.345017187E0,1.064650831E-3,3.260624111E-1,1.465029418E-1
1.349979687E0,1.064650831E-3,3.260624111E-1,1.465029418E-1
1.354942187E0,-3.085742146E-2,3.803595901E-1,1.337271333E-1
1.359906250E0,-3.085742146E-2,3.803595901E-1,1.337271333E-1
1.364870312E0,-7.874925435E-2,4.959178567E-1,1.323657632E-1
1.369832812E0,-7.874925435E-2,4.959178567E-1,1.323657632E-1
1.374796875E0,-1.193107069E-1,5.461658835E-1,9.751154482E-2
1.379759375E0,-1.193107069E-1,5.461658835E-1,9.751154482E-2
1.384721875E0,-1.373574138E-1,5.024453998E-1,2.253220044E-2
1.389685937E0,-1.373574138E-1,5.024453998E-1,2.253220044E-2
1.394648437E0,-1.378286481E-1,4.101349115E-1,-6.911503524E-2
1.399612500E0,-1.378286481E-1,4.101349115E-1,-6.911503524E-2
1.404575000E0,-1.295732409E-1,3.329041004E-1,-1.340587437E-1
1.409539062E0,-1.295732409E-1,3.329041004E-1,-1.340587437E-1
1.414501562E0,-1.163087413E-1,2.655344009E-1,-1.739395112E-1
1.419464062E0,-1.163087413E-1,2.655344009E-1,-1.739395112E-1
1.424428125E0,-1.010196581E-1,2.130523473E-1,-1.957386732E-1
1.429390625E0,-1.010196581E-1,2.130523473E-1,-1.957386732E-1
1.434354687E0,-8.777260780E-2,1.691573113E-1,-2.062455565E-1
1.439317187E0,-8.777260780E-2,1.691573113E-1,-2.062455565E-1
1.444281250E0,-7.993607968E-2,1.529432088E-1,-2.013237327E-1
1.449243750E0,-7.993607968E-2,1.529432088E-1,-2.013237327E-1
1.454206250E0,-6.490879506E-2,1.374970376E-1,-1.881464869E-1
1.459170312E0,-6.490879506E-2,1.374970376E-1,-1.881464869E-1
1.464132812E0,-4.201007634E-2,1.059589386E-1,-1.748470813E-1
1.469096875E0,-4.201007634E-2,1.059589386E-1,-1.748470813E-1
1.474059375E0,-1.254891697E-2,5.408775434E-2,-1.659808159E-1
1.479023437E0,-1.254891697E-2,5.408775434E-2,-1.659808159E-1
1.483985937E0,1.366592757E-2,2.059488557E-2,-1.564338654E-1
1.488948437E0,1.366592757E-2,2.059488557E-2,-1.564338654E-1
1.493912500E0,3.326597437E-2,-1.551597659E-2,-1.452812105E-1
1.498875000E0,3.326597437E-2,-1.551597659E-2,-1.452812105E-1
1.503839062E0,6.010913849E-2,-5.956808850E-2,-1.350361258E-1
1.508801562E0,6.010913849E-2,-5.956808850E-2,-1.350361258E-1
1.513765625E0,9.443976730E-2,-1.495049000E-1,-1.315629184E-1
1.518728125E0,9.443976730E-2,-1.495049000E-1,-1.315629184E-1
1.523690625E0,9.869837016E-2,-1.488591284E-1,-1.121374071E-1
1.528654687E0,9.869837016E-2,-1.488591284E-1,-1.121374071E-1
1.533617187E0,1.044754088E-1,-1.435184181E-1,-9.592329711E-2
1.538581250E0,1.044754088E-1,-1.435184181E-1,-9.592329711E-2
1.543543750E0,1.143365204E-1,-1.550026834E-1,-9.028588235E-2
1.548506250E0,1.143365204E-1,-1.550026834E-1,-9.028588235E-2
1.553470312E0,1.188743785E-1,-1.626995951E-1,-8.473573625E-2
1.558432812E0,1.188743785E-1,-1.626995951E-1,-8.473573625E-2
1.563396875E0,1.090481728E-1,-1.531351954E-1,-7.930775732E-2
1.568359375E0,1.090481728E-1,-1.531351954E-1,-7.930775732E-2
1.573321875E0,8.719664812E-2,-1.010196581E-1,-6.937684119E-2
1.578285937E0,8.719664812E-2,-1.010196581E-1,-6.937684119E-2
1.583248437E0,6.815510988E-2,-7.354817539E-2,-6.735225767E-2
1.588212500E0,6.815510988E-2,-7.354817539E-2,-6.735225767E-2
1.593175000E0,5.586798862E-2,-7.974409312E-2,-9.660397470E-2
1.598139062E0,5.586798862E-2,-7.974409312E-2,-9.660397470E-2
1.603101562E0,5.560619012E-2,-1.631010175E-1,-1.546885371E-1
1.608065625E0,5.560619012E-2,-1.631010175E-1,-1.546885371E-1
1.613028125E0,6.300638616E-2,-3.140196502E-1,-2.575931549E-1
1.617990625E0,6.300638616E-2,-3.140196502E-1,-2.575931549E-1
1.622954687E0,7.005751878E-2,-4.378507435E-1,-3.426604867E-1
1.627917187E0,7.005751878E-2,-4.378507435E-1,-3.426604867E-1
1.632879687E0,7.164576650E-2,-4.809952974E-1,-3.596948981E-1
1.637843750E0,7.164576650E-2,-4.809952974E-1,-3.596948981E-1
1.642806250E0,7.681193948E-2,-4.719544947E-1,-3.254864514E-1
1.647770312E0,7.681193948E-2,-4.719544947E-1,-3.254864514E-1
1.652732812E0,9.986773878E-2,-4.971570373E-1,-2.802998722E-1
1.657695312E0,9.986773878E-2,-4.971570373E-1,-2.802998722E-1
1.662657812E0,1.408131570E-1,-5.680522919E-1,-2.405936420E-1
1.667621875E0,1.408131570E-1,-5.680522919E-1,-2.405936420E-1
1.672584375E0,2.036799192E-1,-6.907663941E-1,-2.181137949E-1
1.677548437E0,2.036799192E-1,-6.907663941E-1,-2.181137949E-1
1.682512500E0,2.711194456E-1,-8.418595791E-1,-2.078338116E-1
1.687475000E0,2.711194456E-1,-8.418595791E-1,-2.078338116E-1
1.692439062E0,3.168645203E-1,-9.180431962E-1,-1.885653734E-1
1.697401562E0,3.168645203E-1,-9.180431962E-1,-1.885653734E-1
1.702364062E0,3.269001544E-1,-8.814960122E-1,-1.354200989E-1
1.707328125E0,3.269001544E-1,-8.814960122E-1,-1.354200989E-1
1.712290625E0,3.079633415E-1,-7.548025250E-1,-5.565854907E-2
1.717254687E0,3.079633415E-1,-7.548025250E-1,-5.565854907E-2
1.722217187E0,2.787639797E-1,-6.174800396E-1,2.117084339E-2
1.727181250E0,2.787639797E-1,-6.174800396E-1,2.117084339E-2
1.732143750E0,2.454805523E-1,-4.986231029E-1,8.475318551E-2
1.737107812E0,2.454805523E-1,-4.986231029E-1,8.475318551E-2
1.742070312E0,2.109579444E-1,-3.959977627E-1,1.365894675E-1
1.747032812E0,2.109579444E-1,-3.959977627E-1,1.365894675E-1
1.751996875E0,1.785122752E-1,-2.764252424E-1,1.853016019E-1
1.756959375E0,1.785122752E-1,-2.764252424E-1,1.853016019E-1
1.761921875E0,1.577777565E-1,-1.915847957E-1,2.246587873E-1
1.766885937E0,1.577777565E-1,-1.915847957E-1,2.246587873E-1
1.771848437E0,1.215970889E-1,-9.557422996E-2,2.600366175E-1
1.776812500E0,1.215970889E-1,-9.557422996E-2,2.600366175E-1
1.781775000E0,6.681120396E-2,4.162610322E-2,2.979451418E-1
1.786739062E0,6.681120396E-2,4.162610322E-2,2.979451418E-1
1.791701562E0,6.544984877E-3,2.045700401E-1,3.389429450E-1
1.796664062E0,6.544984877E-3,2.045700401E-1,3.389429450E-1
1.801628125E0,-4.600688070E-2,3.378782868E-1,3.770958483E-1
1.806590625E0,-4.600688070E-2,3.378782868E-1,3.770958483E-1
1.811554687E0,-8.552113175E-2,4.465075731E-1,4.088259339E-1
1.816517187E0,-8.552113175E-2,4.465075731E-1,4.088259339E-1
1.821479687E0,-1.175304726E-1,5.282762647E-1,4.299443960E-1
1.826443750E0,-1.175304726E-1,5.282762647E-1,4.299443960E-1
1.831406250E0,-1.355422735E-1,5.907590389E-1,4.472231567E-1
1.836368750E0,-1.355422735E-1,5.907590389E-1,4.472231567E-1
1.841332812E0,-1.372526884E-1,6.187715530E-1,4.637688994E-1
1.846295312E0,-1.372526884E-1,6.187715530E-1,4.637688994E-1
1.851259375E0,-1.275137514E-1,6.153856516E-1,4.725478888E-1
1.856221875E0,-1.275137514E-1,6.153856516E-1,4.725478888E-1
1.861185937E0,-1.130973324E-1,5.776690841E-1,4.683067501E-1
1.866148437E0,-1.130973324E-1,5.776690841E-1,4.683067501E-1
1.871110937E0,-9.724974632E-2,5.193401575E-1,4.485146999E-1
1.876075000E0,-9.724974632E-2,5.193401575E-1,4.485146999E-1
1.881037500E0,-8.347909898E-2,4.521100819E-1,4.198040366E-1
1.886001562E0,-8.347909898E-2,4.521100819E-1,4.198040366E-1
1.890964062E0,-7.258824259E-2,3.894353211E-1,3.924896419E-1
1.895928125E0,-7.258824259E-2,3.894353211E-1,3.924896419E-1
1.900890625E0,-4.564036056E-2,3.100926578E-1,3.669380248E-1
1.905854687E0,-4.564036056E-2,3.100926578E-1,3.669380248E-1
1.910817187E0,-2.932153177E-3,1.935744733E-1,3.385589719E-1
1.915781250E0,-2.932153177E-3,1.935744733E-1,3.385589719E-1
1.920743750E0,4.110250250E-2,9.039060026E-2,3.125011921E-1
1.925706250E0,4.110250250E-2,9.039060026E-2,3.125011921E-1
1.930670312E0,7.099999487E-2,2.696533687E-2,2.952224314E-1
1.935632812E0,7.099999487E-2,2.696533687E-2,2.952224314E-1
1.940595312E0,7.909832150E-2,4.764748737E-3,2.886425555E-1
1.945559375E0,7.909832150E-2,4.764748737E-3,2.886425555E-1
1.950521875E0,6.661921740E-2,5.328490213E-2,2.905798554E-1
1.955485937E0,6.661921740E-2,5.328490213E-2,2.905798554E-1
1.960448437E0,4.822344705E-2,1.015258059E-1,2.930582464E-1
1.965410937E0,4.822344705E-2,1.015258059E-1,2.930582464E-1
1.970375000E0,3.213151172E-2,1.385093331E-1,2.947162986E-1
1.975337500E0,3.213151172E-2,1.385093331E-1,2.947162986E-1
1.980301562E0,2.401573025E-2,1.615127623E-1,2.916619778E-1
1.985264062E0,2.401573025E-2,1.615127623E-1,2.916619778E-1
1.990228125E0,1.342158206E-2,1.765400469E-1,2.827607989E-1
1.995190625E0,1.342158206E-2,1.765400469E-1,2.827607989E-1
2.000153125E0,-1.685987972E-2,2.502453029E-1,2.785370946E-1
2.005117187E0,-1.685987972E-2,2.502453029E-1,2.785370946E-1
2.010079687E0,-5.998696759E-2,3.683517277E-1,2.799507976E-1
2.015043750E0,-5.998696759E-2,3.683517277E-1,2.799507976E-1
2.020006250E0,-9.463175386E-2,4.757243991E-1,2.825513482E-1
2.024970312E0,-9.463175386E-2,4.757243991E-1,2.825513482E-1
2.029932812E0,-1.137081981E-1,5.279795527E-1,2.771582901E-1
2.034895312E0,-1.137081981E-1,5.279795527E-1,2.771582901E-1
2.039859375E0,-1.192932576E-1,5.521174669E-1,2.657263875E-1
2.044821875E0,-1.192932576E-1,5.521174669E-1,2.657263875E-1
2.049785937E0,-1.171639487E-1,5.533741117E-1,2.504198253E-1
2.054748437E0,-1.171639487E-1,5.533741117E-1,2.504198253E-1
2.059712500E0,-1.060985625E-1,5.296899676E-1,2.309594154E-1
2.064675000E0,-1.060985625E-1,5.296899676E-1,2.309594154E-1
2.069637500E0,-8.944812417E-2,4.643797576E-1,2.055823356E-1
2.074601562E0,-8.944812417E-2,4.643797576E-1,2.055823356E-1
2.079564062E0,-7.161086053E-2,3.865904212E-1,1.784773618E-1
2.084528125E0,-7.161086053E-2,3.865904212E-1,1.784773618E-1
2.089490625E0,-5.897467583E-2,3.300417662E-1,1.543220133E-1
2.094454687E0,-5.897467583E-2,3.300417662E-1,1.543220133E-1
2.099417187E0,-4.670501128E-2,2.745577395E-1,1.328370124E-1
2.104379687E0,-4.670501128E-2,2.745577395E-1,1.328370124E-1
2.109343750E0,-1.584758982E-2,1.577603072E-1,1.090132669E-1
2.114306250E0,-1.584758982E-2,1.577603072E-1,1.090132669E-1
2.119270312E0,3.050835431E-2,-4.241149873E-3,7.958701253E-2
2.124232812E0,3.050835431E-2,-4.241149873E-3,7.958701253E-2
2.129196875E0,7.293730974E-2,-1.656317413E-1,4.499458894E-2
2.134159375E0,7.293730974E-2,-1.656317413E-1,4.499458894E-2
2.139121875E0,9.651670605E-2,-2.785894573E-1,1.411971357E-2
2.144085937E0,9.651670605E-2,-2.785894573E-1,1.411971357E-2
2.149048437E0,9.882054478E-2,-3.065321743E-1,-4.852015525E-3
2.154012500E0,9.882054478E-2,-3.065321743E-1,-4.852015525E-3
2.158975000E0,8.789478242E-2,-2.960602045E-1,-1.562069636E-2
2.163939062E0,8.789478242E-2,-2.960602045E-1,-1.562069636E-2
2.168901562E0,7.326892018E-2,-2.680651248E-1,-1.734857261E-2
2.173864062E0,7.326892018E-2,-2.680651248E-1,-1.734857261E-2
2.178828125E0,6.112143025E-2,-2.316226512E-1,-1.394518092E-2
2.183790625E0,6.112143025E-2,-2.316226512E-1,-1.394518092E-2
2.188754687E0,5.345943570E-2,-2.034181207E-1,-9.704031050E-3
2.193717187E0,5.345943570E-2,-2.034181207E-1,-9.704031050E-3
2.198681250E0,4.323180392E-2,-1.742362231E-1,-4.572762642E-3
2.203643750E0,4.323180392E-2,-1.742362231E-1,-4.572762642E-3
2.208606250E0,2.426007576E-2,-1.081755087E-1,2.722713631E-3
2.213570312E0,2.426007576E-2,-1.081755087E-1,2.722713631E-3
2.218532812E0,2.216568217E-3,-4.155628756E-2,7.278022822E-3
2.223496875E0,2.216568217E-3,-4.155628756E-2,7.278022822E-3
2.228459375E0,-1.366592757E-2,1.890191622E-2,1.586504281E-2
2.233423437E0,-1.366592757E-2,1.890191622E-2,1.586504281E-2
2.238385937E0,-1.891936921E-2,4.921828583E-2,2.537708730E-2
2.243348437E0,-1.891936921E-2,4.921828583E-2,2.537708730E-2
2.248312500E0,-1.644100063E-2,4.907865822E-2,2.638937905E-2
2.253275000E0,-1.644100063E-2,4.907865822E-2,2.638937905E-2
2.258239062E0,-1.101302728E-2,2.799508162E-2,1.865756884E-2
2.263201562E0,-1.101302728E-2,2.799508162E-2,1.865756884E-2
2.268165625E0,-3.612831468E-3,1.483529806E-3,7.539822254E-3
2.273128125E0,-3.612831468E-3,1.483529806E-3,7.539822254E-3
2.278090625E0,-1.658062800E-3,-9.372417815E-3,2.356194425E-3
2.283054687E0,-1.658062800E-3,-9.372417815E-3,2.356194425E-3
2.288017187E0,4.171337001E-3,-1.783726551E-2,-1.396263367E-3
2.292981250E0,4.171337001E-3,-1.783726551E-2,-1.396263367E-3
2.297943750E0,2.343977243E-2,-7.318165898E-2,-8.656833321E-3
2.302907812E0,2.343977243E-2,-7.318165898E-2,-8.656833321E-3
2.307870312E0,5.284857005E-2,-1.677785069E-1,-2.553416602E-2
2.312832812E0,5.284857005E-2,-1.677785069E-1,-2.553416602E-2
2.317796875E0,8.422958851E-2,-2.623404264E-1,-4.724606127E-2
2.322759375E0,8.422958851E-2,-2.623404264E-1,-4.724606127E-2
2.327723437E0,1.079137102E-1,-3.509857059E-1,-6.435029209E-2
2.332685937E0,1.079137102E-1,-3.509857059E-1,-6.435029209E-2
2.337648437E0,1.223650351E-1,-3.955090642E-1,-6.607816368E-2
2.342612500E0,1.223650351E-1,-3.955090642E-1,-6.607816368E-2
2.347575000E0,1.326973885E-1,-4.083023369E-1,-5.827654526E-2
2.352539062E0,1.326973885E-1,-4.083023369E-1,-5.827654526E-2
2.357501562E0,1.340936422E-1,-4.030663371E-1,-4.860742018E-2
2.362465625E0,1.340936422E-1,-4.030663371E-1,-4.860742018E-2
2.367428125E0,1.305157244E-1,-3.981096148E-1,-4.344124347E-2
2.372390625E0,1.305157244E-1,-3.981096148E-1,-4.344124347E-2
2.377354687E0,1.250702888E-1,-3.853861392E-1,-3.296926990E-2
2.382317187E0,1.250702888E-1,-3.853861392E-1,-3.296926990E-2
2.387281250E0,1.177050024E-1,-3.281567991E-1,-2.844886621E-3
2.392243750E0,1.177050024E-1,-3.281567991E-1,-2.844886621E-3
2.397207812E0,1.071108580E-1,-2.445380837E-1,4.431391135E-2
2.402170312E0,1.071108580E-1,-2.445380837E-1,4.431391135E-2
2.407132812E0,9.545205534E-2,-1.653350443E-1,9.684831649E-2
2.412096875E0,9.545205534E-2,-1.653350443E-1,9.684831649E-2
2.417059375E0,8.436921239E-2,-9.382890165E-2,1.382824332E-1
2.422023437E0,8.436921239E-2,-9.382890165E-2,1.382824332E-1
2.426985937E0,7.602654397E-2,-6.038839370E-2,1.557008177E-1
2.431948437E0,7.602654397E-2,-6.038839370E-2,1.557008177E-1
2.436912500E0,6.058037654E-2,-1.996656694E-2,1.617920250E-1
2.441875000E0,6.058037654E-2,-1.996656694E-2,1.617920250E-1
2.446839062E0,3.544763848E-2,3.621558100E-2,1.610589772E-1
2.451801562E0,3.544763848E-2,3.621558100E-2,1.610589772E-1
2.456765625E0,5.759586580E-3,9.791296721E-2,1.527337581E-1
2.461728125E0,5.759586580E-3,9.791296721E-2,1.527337581E-1
2.466692187E0,-1.939060725E-2,1.340761930E-1,1.395216137E-1
2.471654687E0,-1.939060725E-2,1.340761930E-1,1.395216137E-1
2.476617187E0,-3.155555204E-2,1.483006328E-1,1.238311082E-1
2.481581250E0,-3.155555204E-2,1.483006328E-1,1.238311082E-1
2.486543750E0,-3.426081315E-2,1.424712241E-1,1.103397161E-1
2.491507812E0,-3.426081315E-2,1.424712241E-1,1.103397161E-1
2.496470312E0,-3.118903376E-2,1.164658219E-1,9.231046587E-2
2.501432812E0,-3.118903376E-2,1.164658219E-1,9.231046587E-2
2.506396875E0,-2.611012571E-2,6.541494280E-2,6.059783325E-2
2.511359375E0,-2.611012571E-2,6.541494280E-2,6.059783325E-2
2.516323437E0,-2.190388180E-2,-1.073377486E-2,1.919862255E-2
2.521285937E0,-2.190388180E-2,-1.073377486E-2,1.919862255E-2
2.526250000E0,-1.877974346E-2,-7.569492608E-2,-2.008873969E-2
2.531212500E0,-1.877974346E-2,-7.569492608E-2,-2.008873969E-2
2.536176562E0,-1.809906401E-2,-1.082627699E-1,-4.722860828E-2
2.541139062E0,-1.809906401E-2,-1.082627699E-1,-4.722860828E-2
2.546101562E0,-1.473057922E-2,-1.227490082E-1,-5.817182362E-2
2.551065625E0,-1.473057922E-2,-1.227490082E-1,-5.817182362E-2
2.556028125E0,-9.634217247E-3,-1.284736842E-1,-5.571090803E-2
2.560992187E0,-9.634217247E-3,-1.284736842E-1,-5.571090803E-2
2.565954687E0,-5.899212789E-3,-1.251052022E-1,-4.436627030E-2
2.570917187E0,-5.899212789E-3,-1.251052022E-1,-4.436627030E-2
2.575881250E0,-5.113814492E-3,-1.113345549E-1,-3.221877664E-2
2.580843750E0,-5.113814492E-3,-1.113345549E-1,-3.221877664E-2
2.585807812E0,-7.452555932E-3,-8.412487060E-2,-2.260201424E-2
2.590770312E0,-7.452555932E-3,-8.412487060E-2,-2.260201424E-2
2.595732812E0,-1.195550524E-2,-6.562437862E-2,-1.870992966E-2
2.600695312E0,-1.195550524E-2,-6.562437862E-2,-1.870992966E-2
2.605659375E0,-1.207767799E-2,-4.331907257E-2,-1.902408898E-3
2.610623437E0,-1.207767799E-2,-4.331907257E-2,-1.902408898E-3
2.615585937E0,-1.752310619E-2,-8.429939859E-3,2.319542505E-2
2.620550000E0,-1.752310619E-2,-8.429939859E-3,2.319542505E-2
2.625512500E0,-4.476769641E-2,8.817403018E-2,4.925319180E-2
2.630475000E0,-4.476769641E-2,8.817403018E-2,4.925319180E-2
2.635439062E0,-9.227555990E-2,2.204699963E-1,6.962118298E-2
2.640401562E0,-9.227555990E-2,2.204699963E-1,6.962118298E-2
2.645365625E0,-1.400277615E-1,3.533419073E-1,7.946483791E-2
2.650328125E0,-1.400277615E-1,3.533419073E-1,7.946483791E-2
2.655292187E0,-1.711818874E-1,4.386710525E-1,7.841764390E-2
2.660253125E0,-1.711818874E-1,4.386710525E-1,7.841764390E-2
2.665217187E0,-1.803274155E-1,4.582012892E-1,6.920230389E-2
2.670181250E0,-1.803274155E-1,4.582012892E-1,6.920230389E-2
2.675143750E0,-1.682671905E-1,4.278674722E-1,6.059783325E-2
2.680107812E0,-1.682671905E-1,4.278674722E-1,6.059783325E-2
2.685070312E0,-1.480737329E-1,3.698003590E-1,3.968878835E-2
2.690034375E0,-1.480737329E-1,3.698003590E-1,3.968878835E-2
2.694996875E0,-1.285958588E-1,2.902657092E-1,-6.719517522E-3
2.699959375E0,-1.285958588E-1,2.902657092E-1,-6.719517522E-3
2.704923437E0,-1.112298295E-1,1.768891215E-1,-7.557275891E-2
2.709885937E0,-1.112298295E-1,1.768891215E-1,-7.557275891E-2
2.714850000E0,-9.684831649E-2,5.831145123E-2,-1.520181745E-1
2.719812500E0,-9.684831649E-2,5.831145123E-2,-1.520181745E-1
2.724776562E0,-8.742354065E-2,-3.974114731E-2,-2.213775665E-1
2.729739062E0,-8.742354065E-2,-3.974114731E-2,-2.213775665E-1
2.734701562E0,-7.838273793E-2,-1.242150813E-1,-2.736152709E-1
2.739665625E0,-7.838273793E-2,-1.242150813E-1,-2.736152709E-1
2.744628125E0,-5.928883329E-2,-1.938886195E-1,-3.017325103E-1
2.749592187E0,-5.928883329E-2,-1.938886195E-1,-3.017325103E-1
2.754554687E0,-3.584906086E-2,-2.573488057E-1,-3.103370070E-1
2.759517187E0,-3.584906086E-2,-2.573488057E-1,-3.103370070E-1
2.764481250E0,-1.340412907E-2,-3.008075058E-1,-3.071953952E-1
2.769443750E0,-1.340412907E-2,-3.008075058E-1,-3.071953952E-1
2.774407812E0,4.764748737E-3,-3.031287789E-1,-2.899515331E-1
2.779368750E0,4.764748737E-3,-3.031287789E-1,-2.899515331E-1
2.784334375E0,1.813396998E-2,-2.766521275E-1,-2.634225488E-1
2.789296875E0,1.813396998E-2,-2.766521275E-1,-2.634225488E-1
2.794260937E0,2.579596639E-2,-2.445380837E-1,-2.347991467E-1
2.799223437E0,2.579596639E-2,-2.445380837E-1,-2.347991467E-1
2.804185937E0,2.731440216E-2,-2.176600099E-1,-2.081479728E-1
2.809150000E0,2.731440216E-2,-2.176600099E-1,-2.081479728E-1
2.814110937E0,2.506292798E-2,-1.831548512E-1,-1.852143407E-1
2.819076562E0,2.506292798E-2,-1.831548512E-1,-1.852143407E-1
2.824037500E0,1.853539608E-2,-1.351931989E-1,-1.572367102E-1
2.829003125E0,1.853539608E-2,-1.351931989E-1,-1.572367102E-1
2.833964062E0,1.185078546E-2,-5.342452973E-2,-1.159945801E-1
2.838928125E0,1.185078546E-2,-5.342452973E-2,-1.159945801E-1
2.843890625E0,7.312929723E-3,5.227261037E-2,-6.239552051E-2
2.848854687E0,7.312929723E-3,5.227261037E-2,-6.239552051E-2
2.853818750E0,5.619960371E-3,1.277231872E-1,-1.017526910E-2
2.858781250E0,5.619960371E-3,1.277231872E-1,-1.017526910E-2
2.863743750E0,6.318091881E-3,1.691398621E-1,2.607521974E-2
2.868707812E0,6.318091881E-3,1.691398621E-1,2.607521974E-2
2.873670312E0,4.206243437E-3,1.988279074E-1,4.260348529E-2
2.878632812E0,4.206243437E-3,1.988279074E-1,4.260348529E-2
2.883595312E0,2.268928103E-3,2.090380788E-1,4.262094200E-2
2.888559375E0,2.268928103E-3,2.090380788E-1,4.262094200E-2
2.893521875E0,2.234021435E-3,2.057568580E-1,3.563962504E-2
2.898485937E0,2.234021435E-3,2.057568580E-1,3.563962504E-2
2.903450000E0,3.874630900E-3,2.012539208E-1,2.874557301E-2
2.908412500E0,3.874630900E-3,2.012539208E-1,2.874557301E-2
2.913375000E0,4.991641734E-3,1.981472224E-1,2.508038096E-2
2.918339062E0,4.991641734E-3,1.981472224E-1,2.508038096E-2
2.923303125E0,8.011061698E-3,1.818283945E-1,2.000147291E-2
2.928265625E0,8.011061698E-3,1.818283945E-1,2.000147291E-2
2.933228125E0,1.801179722E-2,1.299397647E-1,3.124139272E-3
2.938190625E0,1.801179722E-2,1.299397647E-1,3.124139272E-3
2.943154687E0,3.572688997E-2,5.113814771E-2,-2.485348843E-2
2.948117187E0,3.572688997E-2,5.113814771E-2,-2.485348843E-2
2.953081250E0,5.468116701E-2,-2.672099136E-2,-5.431464687E-2
2.958045312E0,5.468116701E-2,-2.672099136E-2,-5.431464687E-2
2.963007812E0,6.543239206E-2,-7.110471278E-2,-7.264060527E-2
2.967970312E0,6.543239206E-2,-7.110471278E-2,-7.264060527E-2
2.972934375E0,6.101670861E-2,-7.197737694E-2,-7.635815442E-2
2.977896875E0,6.101670861E-2,-7.197737694E-2,-7.635815442E-2
2.982859375E0,4.956734926E-2,-3.680899367E-2,-6.660176069E-2
2.987823437E0,4.956734926E-2,-3.680899367E-2,-6.660176069E-2
2.992785937E0,3.871140257E-2,-4.537856148E-4,-5.146975815E-2
2.997750000E0,3.871140257E-2,-4.537856148E-4,-5.146975815E-2
3.002712500E0,3.129375353E-2,1.820378378E-2,-3.628539667E-2
3.007676562E0,3.129375353E-2,1.820378378E-2,-3.628539667E-2
3.012639062E0,2.607521974E-2,2.609267272E-2,-2.668608353E-2
3.017603125E0,2.607521974E-2,2.609267272E-2,-2.668608353E-2
3.022565625E0,9.354964830E-3,6.702063978E-2,-1.635373570E-2
3.027528125E0,9.354964830E-3,6.702063978E-2,-1.635373570E-2
3.032492187E0,-1.679006778E-2,1.674817950E-1,1.799434423E-2
3.037454687E0,-1.679006778E-2,1.674817950E-1,1.799434423E-2
3.042418750E0,-4.464552179E-2,3.088883758E-1,7.766715437E-2
3.047381250E0,-4.464552179E-2,3.088883758E-1,7.766715437E-2
3.052343750E0,-6.438519806E-2,4.381474555E-1,1.465029418E-1
3.057307812E0,-6.438519806E-2,4.381474555E-1,1.465029418E-1
3.062270312E0,-7.682939619E-2,5.168792605E-1,1.945518553E-1
3.067232812E0,-7.682939619E-2,5.168792605E-1,1.945518553E-1
3.072196875E0,-8.600982279E-2,5.585751534E-1,2.150420099E-1
3.077159375E0,-8.600982279E-2,5.585751534E-1,2.150420099E-1
3.082121875E0,-9.061749279E-2,5.718745589E-1,2.197893113E-1
3.087085937E0,-9.061749279E-2,5.718745589E-1,2.197893113E-1
3.092048437E0,-9.100146592E-2,5.618040562E-1,2.065946162E-1
3.097012500E0,-9.100146592E-2,5.618040562E-1,2.065946162E-1
3.101975000E0,-8.787732571E-2,5.258327723E-1,1.833992004E-1
3.106939062E0,-8.787732571E-2,5.258327723E-1,1.833992004E-1
3.111903125E0,-7.855726779E-2,4.883954823E-1,1.608669907E-1
3.116864062E0,-7.855726779E-2,4.883954823E-1,1.608669907E-1
3.121828125E0,-6.286676228E-2,4.453556538E-1,1.416858286E-1
3.126790625E0,-6.286676228E-2,4.453556538E-1,1.416858286E-1
3.131754687E0,-4.684463516E-2,3.997676671E-1,1.225046590E-1
3.136717187E0,-4.684463516E-2,3.997676671E-1,1.225046590E-1
3.141681250E0,-3.534291685E-2,3.362900317E-1,8.763298392E-2
3.146643750E0,-3.534291685E-2,3.362900317E-1,8.763298392E-2
3.151607812E0,-3.342305496E-2,2.700896859E-1,3.813544288E-2
3.156570312E0,-3.342305496E-2,2.700896859E-1,3.813544288E-2
3.161532812E0,-1.675515994E-2,1.241452694E-1,-2.832669392E-2
3.166496875E0,-1.675515994E-2,1.241452694E-1,-2.832669392E-2
3.171459375E0,1.874483563E-2,-6.431538612E-2,-9.684831649E-2
3.176423437E0,1.874483563E-2,-6.431538612E-2,-9.684831649E-2
3.181385937E0,5.738642439E-2,-2.378185689E-1,-1.478817463E-1
3.186348437E0,5.738642439E-2,-2.378185689E-1,-1.478817463E-1
3.191312500E0,7.597418129E-2,-3.299370408E-1,-1.776396036E-1
3.196275000E0,7.597418129E-2,-3.299370408E-1,-1.776396036E-1
3.201239062E0,7.569492608E-2,-3.519805372E-1,-1.925621778E-1
3.206201562E0,7.569492608E-2,-3.519805372E-1,-1.925621778E-1
3.211165625E0,6.592108309E-2,-3.323630393E-1,-1.963844448E-1
3.216128125E0,6.592108309E-2,-3.323630393E-1,-1.963844448E-1
3.221092187E0,5.344198272E-2,-3.036349416E-1,-1.939758956E-1
3.226054687E0,5.344198272E-2,-3.036349416E-1,-1.939758956E-1
3.231018750E0,4.314453900E-2,-2.668783069E-1,-1.859299242E-1
3.235981250E0,4.314453900E-2,-2.668783069E-1,-1.859299242E-1
3.240943750E0,3.867649660E-2,-2.308197916E-1,-1.730319411E-1
3.245907812E0,3.867649660E-2,-2.308197916E-1,-1.730319411E-1
3.250870312E0,2.832669392E-2,-1.755452156E-1,-1.547583491E-1
3.255832812E0,2.832669392E-2,-1.755452156E-1,-1.547583491E-1
3.260796875E0,1.572541706E-2,-1.114741787E-1,-1.315454692E-1
3.265759375E0,1.572541706E-2,-1.114741787E-1,-1.315454692E-1
3.270723437E0,1.219985168E-2,-8.663814515E-2,-1.126959100E-1
3.275685937E0,1.219985168E-2,-8.663814515E-2,-1.126959100E-1
3.280650000E0,1.877974346E-2,-1.122944802E-1,-1.029569730E-1
3.285612500E0,1.877974346E-2,-1.122944802E-1,-1.029569730E-1
3.290575000E0,2.953097038E-2,-1.366069168E-1,-9.241518378E-2
3.295539062E0,2.953097038E-2,-1.366069168E-1,-9.241518378E-2
3.300501562E0,3.703588620E-2,-1.380031854E-1,-7.470009476E-2
3.305465625E0,3.703588620E-2,-1.380031854E-1,-7.470009476E-2
3.310428125E0,3.492403775E-2,-1.052258983E-1,-5.270894244E-2
3.315392187E0,3.492403775E-2,-1.052258983E-1,-5.270894244E-2
3.320354687E0,4.728097096E-2,-1.136383861E-1,-3.862413764E-2
3.325317187E0,4.728097096E-2,-1.136383861E-1,-3.862413764E-2
3.330281250E0,7.808603346E-2,-1.846558303E-1,-3.556980938E-2
3.335243750E0,7.808603346E-2,-1.846558303E-1,-3.556980938E-2
3.340207812E0,1.133940443E-1,-2.755874991E-1,-4.031710699E-2
3.345170312E0,1.133940443E-1,-2.755874991E-1,-4.031710699E-2
3.350134375E0,1.319818050E-1,-3.267779946E-1,-4.478514940E-2
3.355096875E0,1.319818050E-1,-3.267779946E-1,-4.478514940E-2
3.360059375E0,1.364323944E-1,-3.300941288E-1,-4.509930685E-2
3.365023437E0,1.364323944E-1,-3.300941288E-1,-4.509930685E-2
3.369985937E0,1.354549974E-1,-3.094468713E-1,-4.127703607E-2
3.374950000E0,1.354549974E-1,-3.094468713E-1,-4.127703607E-2
3.379912500E0,1.360658705E-1,-3.062354624E-1,-4.525638744E-2
3.384876562E0,1.360658705E-1,-3.062354624E-1,-4.525638744E-2
3.389839062E0,1.345648915E-1,-3.287502229E-1,-5.850343779E-2
3.394801562E0,1.345648915E-1,-3.287502229E-1,-5.850343779E-2
3.399765625E0,1.293288916E-1,-3.463256955E-1,-7.649777830E-2
3.404728125E0,1.293288916E-1,-3.463256955E-1,-7.649777830E-2
3.409692187E0,1.205498874E-1,-3.490484059E-1,-8.880235255E-2
3.414654687E0,1.205498874E-1,-3.490484059E-1,-8.880235255E-2
3.419617187E0,1.087689176E-1,-3.247010410E-1,-9.054768085E-2
3.424581250E0,1.087689176E-1,-3.247010410E-1,-9.054768085E-2
3.429543750E0,9.548696131E-2,-2.933025658E-1,-8.431685716E-2
3.434507812E0,9.548696131E-2,-2.933025658E-1,-8.431685716E-2
3.439470312E0,8.485791087E-2,-2.665641308E-1,-7.361798733E-2
3.444434375E0,8.485791087E-2,-2.665641308E-1,-7.361798733E-2
3.449396875E0,6.869615614E-2,-2.279749066E-1,-6.070255116E-2
3.454359375E0,6.869615614E-2,-2.279749066E-1,-6.070255116E-2
3.459323437E0,3.982841223E-2,-1.620538235E-1,-4.487241432E-2
3.464285937E0,3.982841223E-2,-1.620538235E-1,-4.487241432E-2
3.469250000E0,1.658062800E-3,-6.225589290E-2,-2.783800103E-2
3.474212500E0,1.658062800E-3,-6.225589290E-2,-2.783800103E-2
3.479176562E0,-3.689625859E-2,4.916592315E-2,-1.322959550E-2
3.484139062E0,-3.689625859E-2,4.916592315E-2,-1.322959550E-2
3.489101562E0,-6.639232486E-2,1.521054506E-1,-7.679448463E-4
3.494065625E0,-6.639232486E-2,1.521054506E-1,-7.679448463E-4
3.499028125E0,-8.276351541E-2,2.230181694E-1,2.080432512E-2
3.503992187E0,-8.276351541E-2,2.230181694E-1,2.080432512E-2
3.508954687E0,-8.850564808E-2,2.652202249E-1,4.715879634E-2
3.513918750E0,-8.850564808E-2,2.652202249E-1,4.715879634E-2
3.518881250E0,-8.920377493E-2,2.927091718E-1,7.192502171E-2
3.523843750E0,-8.920377493E-2,2.927091718E-1,7.192502171E-2
3.528807812E0,-8.840092272E-2,3.054151535E-1,9.098401666E-2
3.533770312E0,-8.840092272E-2,3.054151535E-1,9.098401666E-2
3.538734375E0,-8.627162129E-2,3.028669953E-1,1.005135104E-1
3.543696875E0,-8.627162129E-2,3.028669953E-1,1.005135104E-1
3.548660937E0,-8.494517207E-2,2.940007150E-1,9.916960448E-2
3.553623437E0,-8.494517207E-2,2.940007150E-1,9.916960448E-2
3.558585937E0,-1.645845547E-2,5.387831479E-2,1.764527895E-2
3.563550000E0,-1.645845547E-2,5.387831479E-2,1.764527895E-2
3.568512500E0,-9.297368675E-2,2.833018303E-1,8.915141970E-2
3.573476562E0,-9.297368675E-2,2.833018303E-1,8.915141970E-2
3.578439062E0,-9.580112249E-2,2.753780484E-1,7.853981853E-2
3.583401562E0,-9.580112249E-2,2.753780484E-1,7.853981853E-2
3.588365625E0,-9.742427617E-2,2.683967352E-1,6.911503524E-2
3.593328125E0,-9.742427617E-2,2.683967352E-1,6.911503524E-2
3.598292187E0,-9.550441802E-2,2.646268308E-1,6.283185631E-2
3.603254687E0,-9.550441802E-2,2.646268308E-1,6.283185631E-2
3.608218750E0,-9.110618383E-2,2.524618804E-1,5.572836101E-2
3.613181250E0,-9.110618383E-2,2.524618804E-1,5.572836101E-2
3.618145312E0,-8.510225266E-2,2.275385708E-1,4.150392860E-2
3.623106250E0,-8.510225266E-2,2.275385708E-1,4.150392860E-2
3.628070312E0,-8.040732145E-2,1.962099075E-1,2.181661502E-2
3.633034375E0,-8.040732145E-2,1.962099075E-1,2.181661502E-2
3.637996875E0,-7.906341553E-2,1.798212677E-1,2.146754880E-3
3.642960937E0,-7.906341553E-2,1.798212677E-1,2.146754880E-3
3.647921875E0,-7.665485889E-2,1.540602148E-1,-1.647590846E-2
3.652887500E0,-7.665485889E-2,1.540602148E-1,-1.647590846E-2
3.657850000E0,-7.312929630E-2,1.194328815E-1,-3.059562109E-2
3.662812500E0,-7.312929630E-2,1.194328815E-1,-3.059562109E-2
3.667776562E0,-6.784094870E-2,7.555530220E-2,-4.539601505E-2
3.672739062E0,-6.784094870E-2,7.555530220E-2,-4.539601505E-2
3.677703125E0,-6.251769513E-2,4.502949491E-2,-5.867796764E-2
3.682665625E0,-6.251769513E-2,4.502949491E-2,-5.867796764E-2
3.687628125E0,-5.838126317E-2,2.715732343E-2,-6.534512341E-2
3.692592187E0,-5.838126317E-2,2.715732343E-2,-6.534512341E-2
3.697554687E0,-5.651376024E-2,2.117084339E-2,-6.459463388E-2
3.702518750E0,-5.651376024E-2,2.117084339E-2,-6.459463388E-2
3.707481250E0,-5.701990798E-2,3.457497060E-2,-5.843362212E-2
3.712445312E0,-5.701990798E-2,3.457497060E-2,-5.843362212E-2
3.717407812E0,-5.612978712E-2,5.595525727E-2,-4.799655452E-2
3.722371875E0,-5.612978712E-2,5.595525727E-2,-4.799655452E-2
3.727334375E0,-5.246459693E-2,7.077310234E-2,-3.933972120E-2
3.732296875E0,-5.246459693E-2,7.077310234E-2,-3.933972120E-2
3.737260937E0,-4.571017250E-2,6.511823088E-2,-3.384193406E-2
3.742223437E0,-4.571017250E-2,6.511823088E-2,-3.384193406E-2
3.747187500E0,-3.933972120E-2,5.197590590E-2,-3.057816811E-2
3.752150000E0,-3.933972120E-2,5.197590590E-2,-3.057816811E-2
3.757114062E0,-3.288200125E-2,3.588397056E-2,-2.766346931E-2
3.762076562E0,-3.288200125E-2,3.588397056E-2,-2.766346931E-2
3.767039062E0,-2.794272080E-2,2.886774577E-2,-2.303834632E-2
3.772003125E0,-2.794272080E-2,2.886774577E-2,-2.303834632E-2
3.776964062E0,-2.516764775E-2,2.572615258E-2,-1.980948634E-2
3.781929687E0,-2.516764775E-2,2.572615258E-2,-1.980948634E-2
3.786890625E0,-1.780235767E-2,1.954768784E-3,-2.005383372E-2
3.791854687E0,-1.780235767E-2,1.954768784E-3,-2.005383372E-2
3.796818750E0,-9.285151958E-3,-3.169517964E-2,-2.342231758E-2
3.801781250E0,-9.285151958E-3,-3.169517964E-2,-2.342231758E-2
3.806745312E0,-2.932153177E-3,-6.579891592E-2,-2.555162087E-2
3.811707812E0,-2.932153177E-3,-6.579891592E-2,-2.555162087E-2
3.816670312E0,1.623156248E-3,-8.613199741E-2,-2.565634064E-2
3.821634375E0,1.623156248E-3,-8.613199741E-2,-2.565634064E-2
3.826596875E0,1.361356815E-3,-2.242748067E-2,-5.532693584E-3
3.831560937E0,1.361356815E-3,-2.242748067E-2,-5.532693584E-3
3.836523437E0,1.884955564E-3,-2.754129469E-2,-6.562437862E-3
3.841487500E0,1.884955564E-3,-2.754129469E-2,-6.562437862E-3
3.846450000E0,2.792526735E-3,-3.111921996E-2,-7.243116386E-3
3.851414062E0,2.792526735E-3,-3.111921996E-2,-7.243116386E-3
3.856376562E0,2.216568217E-2,-1.731192023E-1,-3.710569814E-2
3.861339062E0,2.216568217E-2,-1.731192023E-1,-3.710569814E-2
3.866303125E0,3.190461919E-2,-1.620538235E-1,-2.984512970E-2
3.871265625E0,3.190461919E-2,-1.620538235E-1,-2.984512970E-2
3.876229687E0,4.143411666E-2,-1.685289890E-1,-2.371902391E-2
3.881192187E0,4.143411666E-2,-1.685289890E-1,-2.371902391E-2
3.886154687E0,4.872959107E-2,-1.810429990E-1,-2.284635976E-2
3.891118750E0,4.872959107E-2,-1.810429990E-1,-2.284635976E-2
3.896081250E0,4.958480224E-2,-1.631010175E-1,-1.096066739E-2
3.901045312E0,4.958480224E-2,-1.631010175E-1,-1.096066739E-2
3.906007812E0,4.187044874E-2,-1.050513685E-1,1.609193534E-2
3.910971875E0,4.187044874E-2,-1.050513685E-1,1.609193534E-2
3.915934375E0,2.949606441E-2,-3.583160788E-2,4.726351425E-2
3.920898437E0,2.949606441E-2,-3.583160788E-2,4.726351425E-2
3.925860937E0,2.001892589E-2,1.366592757E-2,7.059856504E-2
3.930823437E0,2.001892589E-2,1.366592757E-2,7.059856504E-2
3.935787500E0,1.672025397E-2,2.869321220E-2,8.162904531E-2
3.940750000E0,1.672025397E-2,2.869321220E-2,8.162904531E-2
3.945714062E0,-3.333578818E-3,8.155923337E-2,9.025097638E-2
3.950676562E0,-3.333578818E-3,8.155923337E-2,9.025097638E-2
3.955639062E0,-3.602359444E-2,1.537111402E-1,9.827949107E-2
3.960603125E0,-3.602359444E-2,1.537111402E-1,9.827949107E-2
3.965565625E0,-6.948155910E-2,2.303834558E-1,1.042310596E-1
3.970529687E0,-6.948155910E-2,2.303834558E-1,1.042310596E-1
3.975492187E0,-9.047786891E-2,2.674891651E-1,1.049291939E-1
3.980456250E0,-9.047786891E-2,2.674891651E-1,1.049291939E-1
3.985418750E0,-9.452702850E-2,2.882411182E-1,1.061509252E-1
3.990381250E0,-9.452702850E-2,2.882411182E-1,1.061509252E-1
3.995345312E0,-8.988445252E-2,2.736850679E-1,1.053306237E-1
4.000307812E0,-8.988445252E-2,2.736850679E-1,1.053306237E-1
4.005271875E0,-8.087855577E-2,2.560921609E-1,1.064476296E-1
4.010234375E0,-8.087855577E-2,2.560921609E-1,1.064476296E-1
4.015198437E0,-7.295475900E-2,2.342406362E-1,1.084373072E-1
4.020160937E0,-7.295475900E-2,2.342406362E-1,1.084373072E-1
4.025123437E0,-6.782349199E-2,2.286730409E-1,1.132020578E-1
4.030087500E0,-6.782349199E-2,2.286730409E-1,1.132020578E-1
4.035050000E0,-6.661921740E-2,2.207492441E-1,1.140921712E-1
4.040014062E0,-6.661921740E-2,2.207492441E-1,1.140921712E-1
4.044976562E0,-6.887069345E-2,2.251998335E-1,1.147379428E-1
4.049940625E0,-6.887069345E-2,2.251998335E-1,1.147379428E-1
4.054903125E0,-7.421139628E-2,2.348864079E-1,1.141794398E-1
4.059865625E0,-7.421139628E-2,2.348864079E-1,1.141794398E-1
4.064828125E0,-8.134979755E-2,2.504721880E-1,1.147553995E-1
4.069790625E0,-8.134979755E-2,2.504721880E-1,1.147553995E-1
4.074754687E0,-8.902924508E-2,2.557954490E-1,1.116661653E-1
4.079717187E0,-8.902924508E-2,2.557954490E-1,1.116661653E-1
4.084681250E0,-9.063494951E-2,2.491457462E-1,1.068141535E-1
4.089645312E0,-9.063494951E-2,2.491457462E-1,1.068141535E-1
4.094607812E0,-8.384561539E-2,2.224247605E-1,1.003564298E-1
4.099571875E0,-8.384561539E-2,2.224247605E-1,1.003564298E-1
4.104534375E0,-7.208209485E-2,1.957386732E-1,9.436995536E-2
4.109496875E0,-7.208209485E-2,1.957386732E-1,9.436995536E-2
4.114459375E0,-6.024876609E-2,1.657539159E-1,8.805186301E-2
4.119423437E0,-6.024876609E-2,1.657539159E-1,8.805186301E-2
4.124387500E0,-4.982915148E-2,1.395216137E-1,8.203047514E-2
4.129350000E0,-4.982915148E-2,1.395216137E-1,8.203047514E-2
4.134312500E0,-4.351105914E-2,1.172512174E-1,7.724827528E-2
4.139276562E0,-4.351105914E-2,1.172512174E-1,7.724827528E-2
4.144240625E0,-3.647737950E-2,9.309586138E-2,7.340855151E-2
4.149201562E0,-3.647737950E-2,9.309586138E-2,7.340855151E-2
4.154165625E0,-2.085668407E-2,5.963790044E-2,7.005751878E-2
4.159128125E0,-2.085668407E-2,5.963790044E-2,7.005751878E-2
4.164090625E0,-3.001966281E-3,2.586578019E-2,6.604325771E-2
4.169054687E0,-3.001966281E-3,2.586578019E-2,6.604325771E-2
4.174017187E0,4.380776547E-3,9.058258496E-3,6.265731901E-2
4.178981250E0,4.380776547E-3,9.058258496E-3,6.265731901E-2
4.183945312E0,7.679448463E-4,1.752310619E-2,5.998696759E-2
4.188907812E0,7.679448463E-4,1.752310619E-2,5.998696759E-2
4.193870312E0,-4.764748737E-3,4.143411666E-2,5.639158934E-2
4.198834375E0,-4.764748737E-3,4.143411666E-2,5.639158934E-2
4.203796875E0,-8.115780540E-3,4.701916873E-2,4.996877536E-2
4.208760937E0,-8.115780540E-3,4.701916873E-2,4.996877536E-2
4.213725000E0,-7.522369269E-3,4.105014354E-2,4.216715321E-2
4.218685937E0,-7.522369269E-3,4.105014354E-2,4.216715321E-2
4.223650000E0,-9.128072299E-3,3.113667294E-2,3.686135262E-2
4.228612500E0,-9.128072299E-3,3.113667294E-2,3.686135262E-2
4.233576562E0,-7.470009383E-3,7.312929723E-3,2.839650773E-2
4.238539062E0,-7.470009383E-3,7.312929723E-3,2.839650773E-2
4.243503125E0,-2.111848444E-3,-2.073451132E-2,1.900663599E-2
4.248465625E0,-2.111848444E-3,-2.073451132E-2,1.900663599E-2
4.253429687E0,4.345869645E-3,-4.639085010E-2,9.738937020E-3
4.258392187E0,4.345869645E-3,-4.639085010E-2,9.738937020E-3
4.263354687E0,4.834562074E-3,-5.188863724E-2,5.777040031E-3
4.268317187E0,4.834562074E-3,-5.188863724E-2,5.777040031E-3
4.273281250E0,1.099557430E-2,-7.742280513E-2,3.159045940E-3
4.278245312E0,1.099557430E-2,-7.742280513E-2,3.159045940E-3
4.283207812E0,2.033308521E-2,-1.067792401E-1,1.658062800E-3
4.288170312E0,2.033308521E-2,-1.067792401E-1,1.658062800E-3
4.293134375E0,2.453932911E-2,-1.137954667E-1,2.129301662E-3
4.298096875E0,2.453932911E-2,-1.137954667E-1,2.129301662E-3
4.303059375E0,1.867502369E-2,-9.435249865E-2,3.159045940E-3
4.308023437E0,1.867502369E-2,-9.435249865E-2,3.159045940E-3
4.312985937E0,1.137954649E-2,-7.393214852E-2,8.464846760E-3
4.317950000E0,1.137954649E-2,-7.393214852E-2,8.464846760E-3
4.322912500E0,6.143558770E-3,-4.323180392E-2,2.017600648E-2
4.327876562E0,6.143558770E-3,-4.323180392E-2,2.017600648E-2
4.332839062E0,4.241149873E-3,-8.447393775E-3,3.516838327E-2
4.337803125E0,4.241149873E-3,-8.447393775E-3,3.516838327E-2
4.342767187E0,4.066617228E-3,-7.330382941E-4,4.534365237E-2
4.347729687E0,4.066617228E-3,-7.330382941E-4,4.534365237E-2
4.352692187E0,3.752457909E-3,1.584758982E-2,5.445427075E-2
4.357656250E0,3.752457909E-3,1.584758982E-2,5.445427075E-2
4.362618750E0,2.897246508E-3,2.419026382E-2,5.900958180E-2
4.367581250E0,2.897246508E-3,2.419026382E-2,5.900958180E-2
4.372545312E0,8.028514567E-4,5.270894151E-3,1.153662615E-2
4.377509375E0,8.028514567E-4,5.270894151E-3,1.153662615E-2
4.382471875E0,1.221730490E-3,6.457718089E-3,1.176351868E-2
4.387434375E0,1.221730490E-3,6.457718089E-3,1.176351868E-2
4.392396875E0,1.431170036E-3,8.866272867E-3,1.213003788E-2
4.397360937E0,1.431170036E-3,8.866272867E-3,1.213003788E-2
4.402325000E0,2.234021435E-3,1.127482671E-2,1.274090353E-2
4.407287500E0,2.234021435E-3,1.127482671E-2,1.274090353E-2
4.412250000E0,3.263765713E-3,1.213003788E-2,1.314232964E-2
4.417212500E0,3.263765713E-3,1.213003788E-2,1.314232964E-2
4.422176562E0,1.968731359E-2,6.300638616E-2,6.880088151E-2
4.427139062E0,1.968731359E-2,6.300638616E-2,6.880088151E-2
4.432103125E0,1.851794310E-2,5.939355493E-2,6.239552051E-2
4.437065625E0,1.851794310E-2,5.939355493E-2,6.239552051E-2
4.442028125E0,1.399754081E-2,5.759586394E-2,5.562364310E-2
4.446992187E0,1.399754081E-2,5.759586394E-2,5.562364310E-2
4.451956250E0,8.918632753E-3,7.195992768E-2,5.126031861E-2
4.456918750E0,8.918632753E-3,7.195992768E-2,5.126031861E-2
4.461881250E0,5.515240598E-3,7.838273793E-2,4.708898440E-2
4.466845312E0,5.515240598E-3,7.838273793E-2,4.708898440E-2
4.471807812E0,5.427973811E-3,7.742280513E-2,3.841469809E-2
4.476770312E0,5.427973811E-3,7.742280513E-2,3.841469809E-2
4.481734375E0,0.000000000E0,6.513568759E-2,2.143264376E-2
4.486696875E0,0.000000000E0,6.513568759E-2,2.143264376E-2
4.491660937E0,-7.592182141E-3,5.817182362E-2,-2.705260413E-3
4.496623437E0,-7.592182141E-3,5.817182362E-2,-2.705260413E-3
4.501587500E0,-1.439896598E-2,2.609267272E-2,-3.337069601E-2
4.506550000E0,-1.439896598E-2,2.609267272E-2,-3.337069601E-2
4.511512500E0,-1.417207345E-2,-1.605702937E-2,-5.993460491E-2
4.516476562E0,-1.417207345E-2,-1.605702937E-2,-5.993460491E-2
4.521439062E0,-9.896016680E-3,-4.073598608E-2,-7.400196046E-2
4.526403125E0,-9.896016680E-3,-4.073598608E-2,-7.400196046E-2
4.531365625E0,-6.911503617E-3,-5.002113804E-2,-7.815584540E-2
4.536328125E0,-6.911503617E-3,-5.002113804E-2,-7.815584540E-2
4.541292187E0,-4.694935866E-3,-4.309218004E-2,-7.827802002E-2
4.546254687E0,-4.694935866E-3,-4.309218004E-2,-7.827802002E-2
4.551218750E0,2.792526793E-4,-5.637413636E-2,-7.997098565E-2
4.556181250E0,2.792526793E-4,-5.637413636E-2,-7.997098565E-2
4.561145312E0,4.101523664E-3,-7.590436935E-2,-8.368853480E-2
4.566107812E0,4.101523664E-3,-7.590436935E-2,-8.368853480E-2
4.571071875E0,4.729842301E-3,-7.400196046E-2,-8.590510488E-2
4.576034375E0,4.729842301E-3,-7.400196046E-2,-8.590510488E-2
4.580996875E0,2.600540640E-3,-4.452335089E-2,-8.847074211E-2
4.585960937E0,2.600540640E-3,-4.452335089E-2,-8.847074211E-2
4.590923437E0,-8.901178953E-4,-1.071632188E-2,-9.229300916E-2
4.595887500E0,-8.901178953E-4,-1.071632188E-2,-9.229300916E-2
4.600850000E0,-3.979350906E-3,8.168140426E-3,-9.939649701E-2
4.605812500E0,-3.979350906E-3,8.168140426E-3,-9.939649701E-2
4.610776562E0,-4.747295752E-3,1.368338149E-2,-1.086292937E-1
4.615739062E0,-4.747295752E-3,1.368338149E-2,-1.086292937E-1
4.620703125E0,-5.305801053E-3,1.284562331E-2,-1.197993979E-1
4.625665625E0,-5.305801053E-3,1.284562331E-2,-1.197993979E-1
4.630629687E0,-7.278022822E-3,1.816887781E-2,-1.291020066E-1
4.635592187E0,-7.278022822E-3,1.816887781E-2,-1.291020066E-1
4.640554687E0,-7.365289610E-3,2.624975145E-2,-1.336049587E-1
4.645518750E0,-7.365289610E-3,2.624975145E-2,-1.336049587E-1
4.650481250E0,-4.241149873E-3,2.672099136E-2,-1.364323944E-1
4.655445312E0,-4.241149873E-3,2.672099136E-2,-1.364323944E-1
4.660407812E0,-7.155850180E-4,2.251474746E-2,-1.372526884E-1
4.665371875E0,-7.155850180E-4,2.251474746E-2,-1.372526884E-1
4.670334375E0,-5.759586347E-4,1.998401992E-2,-1.361356825E-1
4.675296875E0,-5.759586347E-4,1.998401992E-2,-1.361356825E-1
4.680260937E0,6.754423957E-3,-8.325220086E-3,-1.361182332E-1
4.685223437E0,6.754423957E-3,-8.325220086E-3,-1.361182332E-1
4.690187500E0,2.099631168E-2,-5.211552978E-2,-1.388234943E-1
4.695150000E0,2.099631168E-2,-5.211552978E-2,-1.388234943E-1
4.700114062E0,3.694862127E-2,-1.081755087E-1,-1.403942853E-1
4.705076562E0,3.694862127E-2,-1.081755087E-1,-1.403942853E-1
4.710039062E0,4.902629927E-2,-1.528384835E-1,-1.407957077E-1
4.715003125E0,4.902629927E-2,-1.528384835E-1,-1.407957077E-1
4.719965625E0,5.215043947E-2,-1.672898084E-1,-1.388234943E-1
4.724929687E0,5.215043947E-2,-1.672898084E-1,-1.388234943E-1
4.729892187E0,4.885176569E-2,-1.633802652E-1,-1.363276690E-1
4.734856250E0,4.885176569E-2,-1.633802652E-1,-1.363276690E-1
4.739818750E0,4.256857932E-2,-1.491383910E-1,-1.345648915E-1
4.744781250E0,4.256857932E-2,-1.491383910E-1,-1.345648915E-1
4.749745312E0,3.459242731E-2,-1.286831200E-1,-1.303761005E-1
4.754707812E0,3.459242731E-2,-1.286831200E-1,-1.303761005E-1
4.759671875E0,2.878047898E-2,-1.110902056E-1,-1.241452694E-1
4.764634375E0,2.878047898E-2,-1.110902056E-1,-1.241452694E-1
4.769598437E0,4.921828397E-3,-1.897172816E-2,-2.263692021E-2
4.774560937E0,4.921828397E-3,-1.897172816E-2,-2.263692021E-2
4.779523437E0,4.572762642E-3,-1.624901593E-2,-2.281145379E-2
4.784487500E0,4.572762642E-3,-1.624901593E-2,-2.281145379E-2
4.789450000E0,4.049163777E-3,-1.382300723E-2,-2.295107953E-2
4.794414062E0,4.049163777E-3,-1.382300723E-2,-2.295107953E-2
4.799376562E0,3.630284918E-3,-9.669124149E-3,-2.265437320E-2
4.804340625E0,3.630284918E-3,-9.669124149E-3,-2.265437320E-2
4.809303125E0,3.595378250E-3,-7.452555932E-3,-2.265437320E-2
4.814265625E0,3.595378250E-3,-7.452555932E-3,-2.265437320E-2
4.819229687E0,3.892084118E-3,-8.534659632E-3,-2.321287990E-2
4.824192187E0,3.892084118E-3,-8.534659632E-3,-2.321287990E-2
4.829156250E0,4.188789986E-3,-1.193805225E-2,-2.426007576E-2
4.834118750E0,4.188789986E-3,-1.193805225E-2,-2.426007576E-2
4.839082812E0,4.450589418E-3,-1.404990070E-2,-2.541199327E-2
4.844045312E0,4.450589418E-3,-1.404990070E-2,-2.541199327E-2
4.849007812E0,4.537856206E-3,-1.487020496E-2,-2.673844434E-2
4.853971875E0,4.537856206E-3,-1.487020496E-2,-2.673844434E-2
4.858934375E0,4.764748737E-3,-1.795943826E-2,-2.808234841E-2
4.863898437E0,4.764748737E-3,-1.795943826E-2,-2.808234841E-2
4.868860937E0,2.780309506E-2,-1.000248194E-1,-1.457000822E-1
4.873823437E0,2.780309506E-2,-1.000248194E-1,-1.457000822E-1
4.878787500E0,2.994984947E-2,-1.070934013E-1,-1.318945289E-1
4.883750000E0,2.994984947E-2,-1.070934013E-1,-1.318945289E-1
4.888714062E0,3.106686100E-2,-1.118581519E-1,-1.174781099E-1
4.893676562E0,3.106686100E-2,-1.118581519E-1,-1.174781099E-1
4.898640625E0,3.176499158E-2,-1.185602173E-1,-1.044405028E-1
4.903603125E0,3.176499158E-2,-1.185602173E-1,-1.044405028E-1
4.908565625E0,3.324852139E-2,-1.233075112E-1,-9.506808221E-2
4.913529687E0,3.324852139E-2,-1.233075112E-1,-9.506808221E-2
4.918492187E0,3.347541392E-2,-1.089434549E-1,-7.567747682E-2
4.923456250E0,3.347541392E-2,-1.089434549E-1,-7.567747682E-2
4.928418750E0,3.033382259E-2,-6.832963973E-2,-4.424409568E-2
4.933382812E0,3.033382259E-2,-6.832963973E-2,-4.424409568E-2
4.938345312E0,2.539454028E-2,-2.935643867E-2,-1.342158206E-2
4.943307812E0,2.539454028E-2,-2.935643867E-2,-1.342158206E-2
4.948271875E0,2.019345947E-2,-1.413716655E-2,4.345869645E-3
4.953234375E0,2.019345947E-2,-1.413716655E-2,4.345869645E-3
4.958198437E0,1.761037298E-2,-3.218387067E-2,1.989675453E-3
4.963160937E0,1.761037298E-2,-3.218387067E-2,1.989675453E-3
4.968125000E0,1.171115879E-2,-3.354522958E-2,-3.961897455E-3
4.973087500E0,1.171115879E-2,-3.354522958E-2,-3.961897455E-3
4.978050000E0,2.652900526E-3,-1.638864167E-2,-7.853982039E-3
4.983014062E0,2.652900526E-3,-1.638864167E-2,-7.853982039E-3
4.987976562E0,-5.724680144E-3,-6.475171540E-3,-1.085594762E-2
4.992940625E0,-5.724680144E-3,-6.475171540E-3,-1.085594762E-2
4.997903125E0,-9.162978269E-3,7.731808349E-3,-8.552113548E-3
5.002867187E0,-9.162978269E-3,7.731808349E-3,-8.552113548E-3
5.007829687E0,-9.442231618E-3,6.370451767E-3,-1.261873078E-2
5.012792187E0,-9.442231618E-3,6.370451767E-3,-1.261873078E-2
5.017756250E0,-6.527531426E-3,-9.040805511E-3,-2.073451132E-2
5.022718750E0,-6.527531426E-3,-9.040805511E-3,-2.073451132E-2
5.027682812E0,-2.303834539E-3,-2.331759781E-2,-2.466150187E-2
5.032645312E0,-2.303834539E-3,-2.331759781E-2,-2.466150187E-2
5.037609375E0,-3.141592606E-4,-2.247984149E-2,-2.141519077E-2
5.042571875E0,-3.141592606E-4,-2.247984149E-2,-2.141519077E-2
5.047534375E0,1.186823938E-3,-1.174606569E-2,-1.406735368E-2
5.052498437E0,1.186823938E-3,-1.174606569E-2,-1.406735368E-2
5.057460937E0,5.148721393E-3,-7.609635592E-3,-5.986479111E-3
5.062425000E0,5.148721393E-3,-7.609635592E-3,-5.986479111E-3
5.067387500E0,1.153662615E-2,-7.470009383E-3,-1.919862116E-3
5.072351562E0,1.153662615E-2,-7.470009383E-3,-1.919862116E-3
5.077314062E0,1.764527895E-2,-2.012364566E-2,-2.565633971E-3
5.082276562E0,1.764527895E-2,-2.012364566E-2,-2.565633971E-3
5.087240625E0,2.059488557E-2,-1.781981252E-2,5.410520826E-3
5.092203125E0,2.059488557E-2,-1.781981252E-2,5.410520826E-3
5.097167187E0,2.153736353E-2,8.203047328E-3,2.300344035E-2
5.102129687E0,2.153736353E-2,8.203047328E-3,2.300344035E-2
5.107092187E0,2.026327327E-2,3.337069601E-2,4.131194204E-2
5.112056250E0,2.026327327E-2,3.337069601E-2,4.131194204E-2
5.117018750E0,1.722639985E-2,4.663519561E-2,5.089380220E-2
5.121982812E0,1.722639985E-2,4.663519561E-2,5.089380220E-2
5.126945312E0,1.492256485E-2,5.120795965E-2,5.311036855E-2
5.131909375E0,1.492256485E-2,5.120795965E-2,5.311036855E-2
5.136871875E0,1.289798319E-2,4.070107639E-2,4.745550081E-2
5.141834375E0,1.289798319E-2,4.070107639E-2,4.745550081E-2
5.146796875E0,1.047197543E-2,3.984586522E-2,4.096287861E-2
5.151760937E0,1.047197543E-2,3.984586522E-2,4.096287861E-2
5.156725000E0,5.951572675E-3,4.232423380E-2,3.478441015E-2
5.161685937E0,5.951572675E-3,4.232423380E-2,3.478441015E-2
5.166650000E0,5.235987919E-5,4.040437192E-2,2.956587821E-2
5.171614062E0,5.235987919E-5,4.040437192E-2,2.956587821E-2
5.176576562E0,-4.136430100E-3,4.286528751E-2,2.647664398E-2
5.181539062E0,-4.136430100E-3,4.286528751E-2,2.647664398E-2
5.186503125E0,-6.667157635E-3,3.761184588E-2,1.930334233E-2
5.191467187E0,-6.667157635E-3,3.761184588E-2,1.930334233E-2
5.196428125E0,-9.337511845E-3,2.853613347E-2,3.735004691E-3
5.201392187E0,-9.337511845E-3,2.853613347E-2,3.735004691E-3
5.206354687E0,-1.233947743E-2,9.546951391E-3,-1.830850355E-2
5.211318750E0,-1.233947743E-2,9.546951391E-3,-1.830850355E-2
5.216281250E0,-1.343903504E-2,-1.624901593E-2,-3.851941600E-2
5.221245312E0,-1.343903504E-2,-1.624901593E-2,-3.851941600E-2
5.226209375E0,-1.284562331E-2,-4.520402849E-2,-5.455899239E-2
5.231171875E0,-1.284562331E-2,-4.520402849E-2,-5.455899239E-2
5.236134375E0,-1.080358773E-2,-8.044222742E-2,-6.565928459E-2
5.241096875E0,-1.080358773E-2,-8.044222742E-2,-6.565928459E-2
5.246060937E0,-9.808750823E-3,-9.543460608E-2,-6.899286807E-2
5.251025000E0,-9.808750823E-3,-9.543460608E-2,-6.899286807E-2
5.255987500E0,-5.305801053E-3,-1.143714264E-1,-6.578145921E-2
5.260951562E0,-5.305801053E-3,-1.143714264E-1,-6.578145921E-2
5.265912500E0,5.009094719E-3,-1.160992980E-1,-5.750859901E-2
5.270876562E0,5.009094719E-3,-1.160992980E-1,-5.750859901E-2
5.275839062E0,1.933824830E-2,-1.333431602E-1,-4.794419557E-2
5.280803125E0,1.933824830E-2,-1.333431602E-1,-4.794419557E-2
5.285767187E0,3.328342736E-2,-1.656666547E-1,-4.171336815E-2
5.290729687E0,3.328342736E-2,-1.656666547E-1,-4.171336815E-2
5.295692187E0,4.047418386E-2,-1.739220619E-1,-3.799581900E-2
5.300654687E0,4.047418386E-2,-1.739220619E-1,-3.799581900E-2
5.305618750E0,3.771656379E-2,-1.472708881E-1,-2.850122750E-2
5.310582812E0,3.771656379E-2,-1.472708881E-1,-2.850122750E-2
5.315545312E0,2.890265174E-2,-9.018116444E-2,-9.896016680E-3
5.320507812E0,2.890265174E-2,-9.018116444E-2,-9.896016680E-3
5.325471875E0,1.987930015E-2,-3.848451003E-2,7.190756500E-3
5.330435937E0,1.987930015E-2,-3.848451003E-2,7.190756500E-3
5.335398437E0,1.378810126E-2,-2.317797206E-2,1.281071641E-2
5.340360937E0,1.378810126E-2,-2.317797206E-2,1.281071641E-2
5.345325000E0,1.033234876E-2,-2.802998759E-2,9.791296907E-3
5.350287500E0,1.033234876E-2,-2.802998759E-2,9.791296907E-3
5.355250000E0,-4.886921961E-3,-1.532399096E-2,5.497787148E-3
5.360214062E0,-4.886921961E-3,-1.532399096E-2,5.497787148E-3
5.365178125E0,-2.651155181E-2,2.059488557E-2,2.495820867E-3
5.370140625E0,-2.651155181E-2,2.059488557E-2,2.495820867E-3
5.375103125E0,-4.548327997E-2,5.494296551E-2,2.443460980E-4
5.380067187E0,-4.548327997E-2,5.494296551E-2,2.443460980E-4
5.385029687E0,-5.433209985E-2,6.885323673E-2,5.934119690E-4
5.389993750E0,-5.433209985E-2,6.885323673E-2,5.934119690E-4
5.394956250E0,-5.789257213E-2,7.595673203E-2,-4.241149873E-3
5.399918750E0,-5.789257213E-2,7.595673203E-2,-4.241149873E-3
5.404882812E0,-5.972516537E-2,6.702063978E-2,-1.825614460E-2
5.409845312E0,-5.972516537E-2,6.702063978E-2,-1.825614460E-2
5.414807812E0,-5.754350498E-2,4.680972919E-2,-3.394665569E-2
5.419771875E0,-5.754350498E-2,4.680972919E-2,-3.394665569E-2
5.424734375E0,-5.258677155E-2,2.270673402E-2,-4.550073296E-2
5.429696875E0,-5.258677155E-2,2.270673402E-2,-4.550073296E-2
5.434660937E0,-4.597197101E-2,1.151917316E-2,-4.680972919E-2
5.439625000E0,-4.597197101E-2,1.151917316E-2,-4.680972919E-2
5.444587500E0,-4.036946595E-2,9.965829551E-3,-3.967133537E-2
5.449551562E0,-4.036946595E-2,9.965829551E-3,-3.967133537E-2
5.454514062E0,-3.609341010E-2,2.113593742E-2,-2.708750963E-2
5.459478125E0,-3.609341010E-2,2.113593742E-2,-2.708750963E-2
5.464440625E0,-3.200933710E-2,2.846631967E-2,-1.830850355E-2
5.469403125E0,-3.200933710E-2,2.846631967E-2,-1.830850355E-2
5.474365625E0,-2.921681106E-2,3.466223925E-2,-1.455604564E-2
5.479329687E0,-2.921681106E-2,3.466223925E-2,-1.455604564E-2
5.484292187E0,-2.701769583E-2,5.721189082E-2,1.221730490E-4
5.489256250E0,-2.701769583E-2,5.721189082E-2,1.221730490E-4
5.494218750E0,-2.537708730E-2,9.154251963E-2,2.295107953E-2
5.499181250E0,-2.537708730E-2,9.154251963E-2,2.295107953E-2
5.504145312E0,-2.319542505E-2,1.154011711E-1,4.239404574E-2
5.509107812E0,-2.319542505E-2,1.154011711E-1,4.239404574E-2
5.514071875E0,-2.241002768E-2,1.285434961E-1,5.129522830E-2
5.519034375E0,-2.241002768E-2,1.285434961E-1,5.129522830E-2
5.523998437E0,-2.591813914E-2,1.355597228E-1,5.014330894E-2
5.528960937E0,-2.591813914E-2,1.355597228E-1,5.014330894E-2
5.533925000E0,-2.895501256E-2,1.382126212E-1,4.258603230E-2
5.538887500E0,-2.895501256E-2,1.382126212E-1,4.258603230E-2
5.543851562E0,-2.823942713E-2,1.225221157E-1,3.275983036E-2
5.548814062E0,-2.823942713E-2,1.225221157E-1,3.275983036E-2
5.553776562E0,-2.546435408E-2,1.070061326E-1,2.658136375E-2
5.558740625E0,-2.546435408E-2,1.070061326E-1,2.658136375E-2
5.563703125E0,-2.221804112E-2,8.770279586E-2,1.877974346E-2
5.568665625E0,-2.221804112E-2,8.770279586E-2,1.877974346E-2
5.573629687E0,-2.160717547E-2,7.274532318E-2,2.408554312E-3
5.578592187E0,-2.160717547E-2,7.274532318E-2,2.408554312E-3
5.583556250E0,-2.478367463E-2,6.143558770E-2,-1.837831736E-2
5.588518750E0,-2.478367463E-2,6.143558770E-2,-1.837831736E-2
5.593481250E0,-3.000221029E-2,6.419321150E-2,-3.499384969E-2
5.598445312E0,-3.000221029E-2,6.419321150E-2,-3.499384969E-2
5.603407812E0,-3.590142354E-2,8.484045416E-2,-4.284783453E-2
5.608371875E0,-3.590142354E-2,8.484045416E-2,-4.284783453E-2
5.613334375E0,-4.085815698E-2,1.146157682E-1,-3.836233541E-2
5.618298437E0,-4.085815698E-2,1.146157682E-1,-3.836233541E-2
5.623260937E0,-4.644321278E-2,1.439373046E-1,-2.970550396E-2
5.628225000E0,-4.644321278E-2,1.439373046E-1,-2.970550396E-2
5.633187500E0,-4.872959107E-2,1.453335732E-1,-2.296853252E-2
5.638151562E0,-4.872959107E-2,1.453335732E-1,-2.296853252E-2
5.643114062E0,-4.359832406E-2,1.306902468E-1,-1.897172816E-2
5.648076562E0,-4.359832406E-2,1.306902468E-1,-1.897172816E-2
5.653039062E0,-3.403392062E-2,1.164309159E-1,-1.691224054E-2
5.658003125E0,-3.403392062E-2,1.164309159E-1,-1.691224054E-2
5.662965625E0,-2.396337129E-2,1.147204936E-1,-1.144936029E-2
5.667929687E0,-2.396337129E-2,1.147204936E-1,-1.144936029E-2
5.672892187E0,-1.689478755E-2,1.218763441E-1,-2.914699726E-3
5.677854687E0,-1.689478755E-2,1.218763441E-1,-2.914699726E-3
5.682818750E0,-1.289798319E-2,1.271995902E-1,7.278022822E-3
5.687781250E0,-1.289798319E-2,1.271995902E-1,7.278022822E-3
5.692745312E0,1.658062800E-3,1.025031880E-1,1.570796408E-2
5.697707812E0,1.658062800E-3,1.025031880E-1,1.570796408E-2
5.702671875E0,2.349213138E-2,4.633849114E-2,2.307325229E-2
5.707634375E0,2.349213138E-2,4.633849114E-2,2.307325229E-2
5.712598437E0,4.438372329E-2,-6.806784077E-4,3.117158078E-2
5.717560937E0,4.438372329E-2,-6.806784077E-4,3.117158078E-2
5.722525000E0,5.352924764E-2,-1.167625282E-2,3.850196302E-2
5.727487500E0,5.352924764E-2,-1.167625282E-2,3.850196302E-2
5.732450000E0,5.016076192E-2,2.164208330E-3,4.487241432E-2
5.737414062E0,5.016076192E-2,2.164208330E-3,4.487241432E-2
5.742376562E0,4.136430472E-2,3.001966327E-2,4.949753731E-2
5.747340625E0,4.136430472E-2,3.001966327E-2,4.949753731E-2
5.752303125E0,3.309144080E-2,3.946189582E-2,4.759512842E-2
5.757265625E0,3.309144080E-2,3.946189582E-2,4.759512842E-2
5.762229687E0,2.741912194E-2,3.703588620E-2,4.016002640E-2
5.767192187E0,2.741912194E-2,3.703588620E-2,4.016002640E-2
5.772156250E0,2.387610450E-2,2.846631967E-2,3.134611249E-2
5.777118750E0,2.387610450E-2,2.846631967E-2,3.134611249E-2
5.782082812E0,1.975712739E-2,1.960004680E-2,2.591813914E-2
5.787045312E0,1.975712739E-2,1.960004680E-2,2.591813914E-2
5.792007812E0,1.874483563E-2,6.161012221E-3,1.759291813E-2
5.796971875E0,1.874483563E-2,6.161012221E-3,1.759291813E-2
5.801934375E0,2.097885683E-2,-2.228785492E-2,1.570796361E-3
5.806898437E0,2.097885683E-2,-2.228785492E-2,1.570796361E-3
5.811860937E0,2.392846346E-2,-5.394812673E-2,-1.670280099E-2
5.816825000E0,2.392846346E-2,-5.394812673E-2,-1.670280099E-2
5.821787500E0,2.286381274E-2,-6.941174716E-2,-2.712241560E-2
5.826750000E0,2.286381274E-2,-6.941174716E-2,-2.712241560E-2
5.831714062E0,2.698278986E-2,-9.152506292E-2,-3.160791099E-2
5.836676562E0,2.698278986E-2,-9.152506292E-2,-3.160791099E-2
5.841640625E0,3.998549283E-2,-1.292765439E-1,-3.319616243E-2
5.846603125E0,3.998549283E-2,-1.292765439E-1,-3.319616243E-2
5.851567187E0,5.131268129E-2,-1.558229923E-1,-2.993239649E-2
5.856529687E0,5.131268129E-2,-1.558229923E-1,-2.993239649E-2
5.861492187E0,5.372123420E-2,-1.584060788E-1,-2.452187613E-2
5.866456250E0,5.372123420E-2,-1.584060788E-1,-2.452187613E-2
5.871418750E0,5.009094998E-2,-1.436929554E-1,-2.080432512E-2
5.876382812E0,5.009094998E-2,-1.436929554E-1,-2.080432512E-2
5.881345312E0,4.201007634E-2,-1.168847010E-1,-1.232202444E-2
5.886309375E0,4.201007634E-2,-1.168847010E-1,-1.232202444E-2
5.891271875E0,3.508111835E-2,-8.803440630E-2,3.857177682E-3
5.896234375E0,3.508111835E-2,-8.803440630E-2,3.857177682E-3
5.901198437E0,2.986258268E-2,-5.298819765E-2,2.282890677E-2
5.906160937E0,2.986258268E-2,-5.298819765E-2,2.282890677E-2
5.911125000E0,2.565634064E-2,-2.700024284E-2,3.722787276E-2
5.916087500E0,2.565634064E-2,-2.700024284E-2,3.722787276E-2
5.921051562E0,2.241002768E-2,-1.221730467E-2,4.579744115E-2
5.926014062E0,2.241002768E-2,-1.221730467E-2,4.579744115E-2
5.930976562E0,1.998401992E-2,-8.377579972E-3,4.567526653E-2
5.935940625E0,1.998401992E-2,-8.377579972E-3,4.567526653E-2
5.940903125E0,1.801179722E-2,-6.876597181E-3,4.183554277E-2
5.945865625E0,1.801179722E-2,-6.876597181E-3,4.183554277E-2
5.950829687E0,1.593485661E-2,-6.981316837E-4,3.972369432E-2
5.955793750E0,1.593485661E-2,-6.981316837E-4,3.972369432E-2
5.960756250E0,1.256637089E-2,7.435102481E-3,3.679154068E-2
5.965718750E0,1.256637089E-2,7.435102481E-3,3.679154068E-2
5.970682812E0,1.256637042E-3,5.323254038E-3,6.876597181E-3
5.975645312E0,1.256637042E-3,5.323254038E-3,6.876597181E-3
5.980609375E0,-1.396263397E-4,8.918632753E-3,6.963863503E-3
5.985571875E0,-1.396263397E-4,8.918632753E-3,6.963863503E-3
5.990534375E0,-1.972222002E-3,1.263618376E-2,6.859143730E-3
5.995498437E0,-1.972222002E-3,1.263618376E-2,6.859143730E-3
6.000460937E0,-1.937315427E-2,8.536405116E-2,3.551745042E-2
6.005425000E0,-1.937315427E-2,8.536405116E-2,3.551745042E-2
6.010387500E0,-2.750638872E-2,9.929177910E-2,3.251548484E-2
6.015350000E0,-2.750638872E-2,9.929177910E-2,3.251548484E-2
6.020314062E0,-3.661700711E-2,1.117359772E-1,2.235766686E-2
6.025276562E0,-3.661700711E-2,1.117359772E-1,2.235766686E-2
6.030240625E0,-4.251622036E-2,9.356710315E-2,1.745329209E-4
6.035203125E0,-4.251622036E-2,9.356710315E-2,1.745329209E-4
6.040167187E0,-4.204498231E-2,4.593706504E-2,-2.741912194E-2
6.045129687E0,-4.204498231E-2,4.593706504E-2,-2.741912194E-2
6.050093750E0,-3.628539667E-2,1.500983164E-2,-5.150466785E-2
6.055056250E0,-3.628539667E-2,1.500983164E-2,-5.150466785E-2
6.060018750E0,-2.982767671E-2,-1.563815027E-2,-6.606071442E-2
6.064982812E0,-2.982767671E-2,-1.563815027E-2,-6.606071442E-2
6.069945312E0,-2.464404888E-2,-2.731440216E-2,-7.028441131E-2
6.074909375E0,-2.464404888E-2,-2.731440216E-2,-7.028441131E-2
6.079871875E0,-1.904154196E-2,-3.174753860E-2,-6.553710997E-2
6.084835937E0,-1.904154196E-2,-3.174753860E-2,-6.553710997E-2
6.089798437E0,-6.928957067E-3,-5.298819765E-2,-5.986479297E-2
6.094760937E0,-6.928957067E-3,-5.298819765E-2,-5.986479297E-2
6.099725000E0,7.627088577E-3,-8.056439459E-2,-5.434955284E-2
6.104687500E0,7.627088577E-3,-8.056439459E-2,-5.434955284E-2
6.109651562E0,1.932079531E-2,-1.004611477E-1,-5.033529550E-2
6.114614062E0,1.932079531E-2,-1.004611477E-1,-5.033529550E-2
6.119576562E0,1.925098151E-2,-9.112364054E-2,-4.483750835E-2
6.124540625E0,1.925098151E-2,-9.112364054E-2,-4.483750835E-2
6.129503125E0,1.183333248E-2,-6.113888323E-2,-3.810053691E-2
6.134467187E0,1.183333248E-2,-6.113888323E-2,-3.810053691E-2
6.139429687E0,4.468042869E-3,-2.258456126E-2,-3.104940802E-2
6.144393750E0,4.468042869E-3,-2.258456126E-2,-3.104940802E-2
6.149356250E0,9.424777818E-4,4.485496320E-3,-2.556907386E-2
6.154318750E0,9.424777818E-4,4.485496320E-3,-2.556907386E-2
6.159282812E0,9.948377265E-4,2.867575921E-2,-2.073451132E-2
6.164245312E0,9.948377265E-4,2.867575921E-2,-2.073451132E-2
6.169209375E0,-2.705260413E-3,5.309291556E-2,-1.687733456E-2
6.174171875E0,-2.705260413E-3,5.309291556E-2,-1.687733456E-2
6.179135937E0,-9.983283468E-3,7.792895287E-2,-1.558579039E-2
6.184098437E0,-9.983283468E-3,7.792895287E-2,-1.558579039E-2
6.189062500E0,-1.989675313E-2,1.047721133E-1,-1.727875881E-2
6.194025000E0,-1.989675313E-2,1.047721133E-1,-1.727875881E-2
6.198987500E0,-2.626720443E-2,1.255938858E-1,-2.371902391E-2
6.203951562E0,-2.626720443E-2,1.255938858E-1,-2.371902391E-2
6.208914062E0,-2.823942713E-2,1.301317513E-1,-3.248057887E-2
6.213878125E0,-2.823942713E-2,1.301317513E-1,-3.248057887E-2
6.218840625E0,-2.682571113E-2,1.047721133E-1,-4.138175771E-2
6.223804687E0,-2.682571113E-2,1.047721133E-1,-4.138175771E-2
6.228767187E0,-2.345722541E-2,8.169886470E-2,-4.820599407E-2
6.233729687E0,-2.345722541E-2,8.169886470E-2,-4.820599407E-2
6.238693750E0,-1.940806210E-2,5.911429971E-2,-5.321509019E-2
6.243656250E0,-1.940806210E-2,5.911429971E-2,-5.321509019E-2
6.248620312E0,-1.635373570E-2,4.181808978E-2,-5.838126317E-2
6.253582812E0,-1.635373570E-2,4.181808978E-2,-5.838126317E-2
6.258546875E0,-2.740166849E-3,5.515240598E-3,-1.235693134E-2
6.263509375E0,-2.740166849E-3,5.515240598E-3,-1.235693134E-2
6.268471875E0,-2.495820867E-3,2.426007763E-3,-1.473057922E-2
6.273435937E0,-2.495820867E-3,2.426007763E-3,-1.473057922E-2
6.278398437E0,-1.762782573E-3,-3.804817796E-3,-1.726130582E-2
6.283360937E0,-1.762782573E-3,-3.804817796E-3,-1.726130582E-2
6.288325000E0,-4.014257283E-4,-1.249655709E-2,-1.958259381E-2
6.293287500E0,-4.014257283E-4,-1.249655709E-2,-1.958259381E-2
6.298251562E0,6.440265104E-3,-1.068141535E-1,-1.072853878E-1
6.303214062E0,6.440265104E-3,-1.068141535E-1,-1.072853878E-1
6.308178125E0,1.305506285E-2,-1.310218722E-1,-1.010371074E-1
6.313140625E0,1.305506285E-2,-1.310218722E-1,-1.010371074E-1
6.318104687E0,1.502728462E-2,-1.241627261E-1,-9.100146592E-2
6.323067187E0,1.502728462E-2,-1.241627261E-1,-9.100146592E-2
6.328029687E0,1.361356769E-2,-1.047197580E-1,-8.004079759E-2
6.332993750E0,1.361356769E-2,-1.047197580E-1,-8.004079759E-2
6.337956250E0,1.281071641E-2,-9.285151958E-2,-7.059856504E-2
6.342920312E0,1.281071641E-2,-9.285151958E-2,-7.059856504E-2
6.347882812E0,1.361356769E-2,-7.876671106E-2,-6.113888323E-2
6.352846875E0,1.361356769E-2,-7.876671106E-2,-6.113888323E-2
6.357809375E0,1.378810126E-2,-5.841616914E-2,-4.597197101E-2
6.362771875E0,1.378810126E-2,-5.841616914E-2,-4.597197101E-2
6.367735937E0,2.478367416E-3,-6.911503617E-3,-5.078908056E-3
6.372698437E0,2.478367416E-3,-6.911503617E-3,-5.078908056E-3
6.377662500E0,2.356194425E-3,-2.844886621E-3,-2.495820867E-3
6.382625000E0,2.356194425E-3,-2.844886621E-3,-2.495820867E-3
6.387587500E0,2.129301662E-3,5.410520826E-4,-1.221730490E-3
6.392551562E0,2.129301662E-3,5.410520826E-4,-1.221730490E-3
6.397514062E0,1.745329238E-3,3.752457909E-3,-9.599310579E-4
6.402476562E0,1.745329238E-3,3.752457909E-3,-9.599310579E-4
6.407440625E0,9.948377265E-4,4.171337001E-3,-1.832595677E-3
6.412404687E0,9.948377265E-4,4.171337001E-3,-1.832595677E-3
6.417367187E0,-2.967059845E-4,6.213372108E-3,-2.216568217E-3
6.422329687E0,-2.967059845E-4,6.213372108E-3,-2.216568217E-3
6.427292187E0,-1.867502346E-3,9.686577134E-3,-2.076941775E-3
6.432256250E0,-1.867502346E-3,9.686577134E-3,-2.076941775E-3
6.437220312E0,-2.548180753E-3,1.202531811E-2,-1.832595677E-3
6.442182812E0,-2.548180753E-3,1.202531811E-2,-1.832595677E-3
6.447146875E0,-1.989675453E-3,1.108284108E-2,-2.024581889E-3
6.452109375E0,-1.989675453E-3,1.108284108E-2,-2.024581889E-3
6.457071875E0,-1.099557383E-3,8.185594343E-3,-2.286381321E-3
6.462035937E0,-1.099557383E-3,8.185594343E-3,-2.286381321E-3
6.466998437E0,-5.410520826E-4,5.811946467E-3,-2.199114766E-3
6.471962500E0,-5.410520826E-4,5.811946467E-3,-2.199114766E-3
6.476925000E0,-2.565633971E-3,1.900663599E-2,-1.066396199E-2
6.481889062E0,-2.565633971E-3,1.900663599E-2,-1.066396199E-2
6.486851562E0,-1.413716702E-3,-3.333578818E-3,-1.034980267E-2
6.491814062E0,-1.413716702E-3,-3.333578818E-3,-1.034980267E-2
6.496778125E0,7.155850180E-4,-3.543018550E-2,-1.192059834E-2
6.501740625E0,7.155850180E-4,-3.543018550E-2,-1.192059834E-2
6.506704687E0,5.009094719E-3,-6.332054734E-2,-1.061160211E-2
6.511667187E0,5.009094719E-3,-6.332054734E-2,-1.061160211E-2
6.516631250E0,2.164208330E-3,-1.869247667E-2,-1.710422686E-3
6.521593750E0,2.164208330E-3,-1.869247667E-2,-1.710422686E-3
6.526556250E0,3.595378250E-3,-2.926917188E-2,-1.954768784E-3
6.531520312E0,3.595378250E-3,-2.926917188E-2,-1.954768784E-3
6.536482812E0,4.520402756E-3,-3.302162886E-2,-1.797689125E-3
6.541446875E0,4.520402756E-3,-3.302162886E-2,-1.797689125E-3
6.546409375E0,5.253441166E-3,-3.356268257E-2,-1.413716702E-3
6.551373437E0,5.253441166E-3,-3.356268257E-2,-1.413716702E-3
6.556335937E0,5.427973811E-3,-3.583160788E-2,-1.710422686E-3
6.561298437E0,5.427973811E-3,-3.583160788E-2,-1.710422686E-3
6.566262500E0,5.218534265E-3,-3.586651757E-2,-1.762782573E-3
6.571225000E0,5.218534265E-3,-3.586651757E-2,-1.762782573E-3
6.576189062E0,5.393067375E-3,-3.576179594E-2,-1.762782573E-3
6.581151562E0,5.393067375E-3,-3.576179594E-2,-1.762782573E-3
6.586115625E0,5.567600485E-3,-3.783873841E-2,-2.094394993E-3
6.591078125E0,5.567600485E-3,-3.783873841E-2,-2.094394993E-3
6.596040625E0,5.567600485E-3,-3.829252347E-2,-2.181661548E-3
6.601004687E0,5.567600485E-3,-3.829252347E-2,-2.181661548E-3
6.605967187E0,5.480333697E-3,-3.841469809E-2,-2.303834539E-3
6.610931250E0,5.480333697E-3,-3.841469809E-2,-2.303834539E-3
6.615893750E0,5.166174378E-3,-3.782128543E-2,-2.617993858E-3
6.620856250E0,5.166174378E-3,-3.782128543E-2,-2.617993858E-3
6.625820312E0,4.974188283E-3,-3.691371530E-2,-2.775073517E-3
6.630782812E0,4.974188283E-3,-3.691371530E-2,-2.775073517E-3
6.635746875E0,4.869468510E-3,-3.436553106E-2,-2.460914198E-3
6.640709375E0,4.869468510E-3,-3.436553106E-2,-2.460914198E-3
6.645673437E0,4.694935866E-3,-3.295181692E-2,-2.216568217E-3
6.650635937E0,4.694935866E-3,-3.295181692E-2,-2.216568217E-3
6.655598437E0,4.014257342E-3,-3.166027367E-2,-1.972222002E-3
6.660562500E0,4.014257342E-3,-3.166027367E-2,-1.972222002E-3
6.665525000E0,1.151917316E-2,-1.438325793E-1,-8.028514683E-3
6.670489062E0,1.151917316E-2,-1.438325793E-1,-8.028514683E-3
6.675451562E0,-2.967059612E-3,-1.087689176E-1,-5.235987715E-3
6.680415625E0,-2.967059612E-3,-1.087689176E-1,-5.235987715E-3
6.685378125E0,-1.375319436E-2,-7.915068418E-2,-2.792526735E-3
6.690340625E0,-1.375319436E-2,-7.915068418E-2,-2.792526735E-3
6.695304687E0,-1.919862255E-2,-6.262241304E-2,-1.413716702E-3
6.700267187E0,-1.919862255E-2,-6.262241304E-2,-1.413716702E-3
6.705231250E0,-1.951278187E-2,-6.017895415E-2,-5.235987483E-4
6.710193750E0,-1.951278187E-2,-6.017895415E-2,-5.235987483E-4
6.715157812E0,-1.663298719E-2,-6.260495633E-2,7.679448463E-4
6.720120312E0,-1.663298719E-2,-6.260495633E-2,7.679448463E-4
6.725082812E0,-1.275835652E-2,-5.345943570E-2,4.258603323E-3
6.730046875E0,-1.275835652E-2,-5.345943570E-2,4.258603323E-3
6.735009375E0,-8.761553094E-3,-5.366887525E-2,5.777040031E-3
6.739973437E0,-8.761553094E-3,-5.366887525E-2,5.777040031E-3
6.744935937E0,-6.300638430E-3,-5.225515738E-2,5.235987715E-3
6.749898437E0,-6.300638430E-3,-5.225515738E-2,5.235987715E-3
6.754862500E0,-5.078908056E-3,-5.592034757E-2,2.530727303E-3
6.759825000E0,-5.078908056E-3,-5.592034757E-2,2.530727303E-3
6.764789062E0,-4.345869645E-3,-5.710717291E-2,4.188790335E-4
6.769751562E0,-4.345869645E-3,-5.710717291E-2,4.188790335E-4
6.774714062E0,-3.839724232E-3,-5.227261037E-2,-1.082104165E-3
6.779678125E0,-3.839724232E-3,-5.227261037E-2,-1.082104165E-3
6.784640625E0,-4.502949305E-3,-4.312708601E-2,-6.283185212E-4
6.789603125E0,-4.502949305E-3,-4.312708601E-2,-6.283185212E-4
6.794567187E0,-6.527531426E-3,-2.860594541E-2,-2.548180753E-3
6.799529687E0,-6.527531426E-3,-2.860594541E-2,-2.548180753E-3
6.804492187E0,-9.320057929E-3,-1.104793418E-2,-5.654866807E-3
6.809457812E0,-9.320057929E-3,-1.104793418E-2,-5.654866807E-3
6.814420312E0,-1.209513191E-2,1.120501384E-2,-8.063420653E-3
6.819382812E0,-1.209513191E-2,1.120501384E-2,-8.063420653E-3
6.824345312E0,-1.425934024E-2,3.012438305E-2,-6.806783844E-3
6.829309375E0,-1.425934024E-2,3.012438305E-2,-6.806783844E-3
6.834271875E0,-2.792526735E-3,6.684611086E-3,-1.029744279E-3
6.839235937E0,-2.792526735E-3,6.684611086E-3,-1.029744279E-3
6.844198437E0,-2.932153177E-3,1.288053021E-2,-5.235987919E-5
6.849162500E0,-2.932153177E-3,1.288053021E-2,-5.235987919E-5
6.854125000E0,-2.809980186E-3,1.391027402E-2,1.919862116E-4
6.859087500E0,-2.809980186E-3,1.391027402E-2,1.919862116E-4
6.864051562E0,-2.670353744E-3,1.123992074E-2,-1.745329246E-5
6.869014062E0,-2.670353744E-3,1.123992074E-2,-1.745329246E-5
6.873978125E0,-2.583087189E-3,1.305506285E-2,2.268928074E-4
6.878940625E0,-2.583087189E-3,1.305506285E-2,2.268928074E-4
6.883904687E0,-2.530727303E-3,1.453859266E-2,6.806784077E-4
6.888867187E0,-2.530727303E-3,1.453859266E-2,6.806784077E-4
6.893831250E0,-2.652900526E-3,1.581268385E-2,1.570796361E-3
6.898793750E0,-2.652900526E-3,1.581268385E-2,1.570796361E-3
6.903756250E0,-2.844886621E-3,1.850049011E-2,3.106686054E-3
6.908720312E0,-2.844886621E-3,1.850049011E-2,3.106686054E-3
6.913682812E0,-3.054326167E-3,2.136282995E-2,4.607669078E-3
6.918646875E0,-3.054326167E-3,2.136282995E-2,4.607669078E-3
6.923609375E0,-3.473205259E-3,2.455678210E-2,5.864306353E-3
6.928571875E0,-3.473205259E-3,2.455678210E-2,5.864306353E-3
6.933535937E0,-4.084070213E-3,2.816961333E-2,7.225662936E-3
6.938500000E0,-4.084070213E-3,2.816961333E-2,7.225662936E-3
6.943462500E0,-4.974188283E-3,3.214896470E-2,8.203047328E-3
6.948425000E0,-4.974188283E-3,3.214896470E-2,8.203047328E-3
6.953389062E0,-5.707226694E-3,3.380702808E-2,8.552113548E-3
6.958351562E0,-5.707226694E-3,3.380702808E-2,8.552113548E-3
6.963314062E0,-5.951572675E-3,3.431317210E-2,8.831365965E-3
6.968278125E0,-5.951572675E-3,3.431317210E-2,8.831365965E-3
6.973240625E0,-5.567600485E-3,3.591887653E-2,9.285151958E-3
6.978204687E0,-5.567600485E-3,3.591887653E-2,9.285151958E-3
6.983167187E0,-4.974188283E-3,3.553490341E-2,9.197885171E-3
6.988131250E0,-4.974188283E-3,3.553490341E-2,9.197885171E-3
6.993093750E0,-4.468042869E-3,3.539527580E-2,8.970992640E-3
6.998057812E0,-4.468042869E-3,3.539527580E-2,8.970992640E-3
7.003020312E0,-4.310963210E-3,3.440044075E-2,8.517206647E-3
7.007982812E0,-4.310963210E-3,3.440044075E-2,8.517206647E-3
7.012945312E0,-3.438298590E-3,3.139847144E-2,7.801621687E-3
7.017909375E0,-3.438298590E-3,3.139847144E-2,7.801621687E-3
7.022871875E0,-2.146754880E-3,2.832669392E-2,7.243116386E-3
7.027835937E0,-2.146754880E-3,2.832669392E-2,7.243116386E-3
7.032798437E0,-1.326450263E-3,2.584832534E-2,6.719517522E-3
7.037762500E0,-1.326450263E-3,2.584832534E-2,6.719517522E-3
7.042725000E0,-9.424777818E-4,2.392846346E-2,5.602506921E-3
7.047687500E0,-9.424777818E-4,2.392846346E-2,5.602506921E-3
7.052651562E0,-1.117010717E-3,2.357939817E-2,4.014257342E-3
7.057614062E0,-1.117010717E-3,2.357939817E-2,4.014257342E-3
7.062578125E0,-6.754423957E-3,1.159945801E-1,1.226966456E-2
7.067540625E0,-6.754423957E-3,1.159945801E-1,1.226966456E-2
7.072503125E0,-6.841690745E-3,1.085071191E-1,8.377579972E-3
7.077467187E0,-6.841690745E-3,1.085071191E-1,8.377579972E-3
7.082429687E0,-6.248278543E-3,9.217083454E-2,5.288347602E-3
7.087393750E0,-6.248278543E-3,9.217083454E-2,5.288347602E-3
7.092356250E0,-4.817108624E-3,7.189010829E-2,4.328416660E-3
7.097320312E0,-4.817108624E-3,7.189010829E-2,4.328416660E-3
7.102282812E0,-1.989675453E-3,5.740387738E-2,5.358160939E-3
7.107245312E0,-1.989675453E-3,5.740387738E-2,5.358160939E-3
7.112209375E0,2.792526735E-3,3.351031989E-2,5.113814492E-3
7.117171875E0,2.792526735E-3,3.351031989E-2,5.113814492E-3
7.122135937E0,9.424777701E-3,1.256637089E-2,4.258603323E-3
7.127098437E0,9.424777701E-3,1.256637089E-2,4.258603323E-3
7.132062500E0,1.621410809E-2,-1.836086437E-2,1.500983140E-3
7.137025000E0,1.621410809E-2,-1.836086437E-2,1.500983140E-3
7.141987500E0,1.930334233E-2,-3.274237737E-2,9.250245057E-4
7.146951562E0,1.930334233E-2,-3.274237737E-2,9.250245057E-4
7.151914062E0,1.788962446E-2,-1.780235767E-2,6.143558770E-3
7.156878125E0,1.788962446E-2,-1.780235767E-2,6.143558770E-3
7.161840625E0,1.296779606E-2,-9.983283468E-3,1.083849464E-2
7.166803125E0,1.296779606E-2,-9.983283468E-3,1.083849464E-2
7.171767187E0,8.499753661E-3,1.047197497E-3,1.624901593E-2
7.176729687E0,8.499753661E-3,1.047197497E-3,1.624901593E-2
7.181693750E0,5.637413356E-3,2.652900526E-3,1.727875881E-2
7.186656250E0,5.637413356E-3,2.652900526E-3,1.727875881E-2
7.191620312E0,4.764748737E-3,-3.769911127E-3,1.588249579E-2
7.196582812E0,4.764748737E-3,-3.769911127E-3,1.588249579E-2
7.201546875E0,3.769911127E-3,-1.015781611E-2,1.214749180E-2
7.206509375E0,3.769911127E-3,-1.015781611E-2,1.214749180E-2
7.211471875E0,5.462880712E-3,-2.570869960E-2,8.988445625E-3
7.216435937E0,5.462880712E-3,-2.570869960E-2,8.988445625E-3
7.221398437E0,8.412486874E-3,-3.565707803E-2,5.602506921E-3
7.226362500E0,8.412486874E-3,-3.565707803E-2,5.602506921E-3
7.231325000E0,1.015781611E-2,-4.202752933E-2,3.228859045E-3
7.236289062E0,1.015781611E-2,-4.202752933E-2,3.228859045E-3
7.241251562E0,1.003564335E-2,-4.213224724E-2,2.303834539E-3
7.246214062E0,1.003564335E-2,-4.213224724E-2,2.303834539E-3
7.251178125E0,1.136209350E-2,-4.462806880E-2,4.886921961E-4
7.256140625E0,1.136209350E-2,-4.462806880E-2,4.886921961E-4
7.261104687E0,1.111774705E-2,-3.984586522E-2,-9.773843922E-4
7.266067187E0,1.111774705E-2,-3.984586522E-2,-9.773843922E-4
7.271031250E0,8.621926419E-3,-2.675589733E-2,-2.268928103E-3
7.275993750E0,8.621926419E-3,-2.675589733E-2,-2.268928103E-3
7.280956250E0,5.358160939E-3,-1.387536712E-2,-4.450589418E-3
7.285920312E0,5.358160939E-3,-1.387536712E-2,-4.450589418E-3
7.290882812E0,3.630284918E-3,-1.771509275E-2,-1.033234876E-2
7.295846875E0,3.630284918E-3,-1.771509275E-2,-1.033234876E-2
7.300809375E0,3.281218931E-3,-3.211405873E-2,-1.610938832E-2
7.305773437E0,3.281218931E-3,-3.211405873E-2,-1.610938832E-2
7.310735937E0,1.570796361E-3,-5.195845291E-2,-1.898918301E-2
7.315698437E0,1.570796361E-3,-5.195845291E-2,-1.898918301E-2
7.320662500E0,-2.565633971E-3,-5.750859901E-2,-1.872738265E-2
7.325625000E0,-2.565633971E-3,-5.750859901E-2,-1.872738265E-2
7.330589062E0,-7.993607782E-3,-4.794419557E-2,-1.476548519E-2
7.335551562E0,-7.993607782E-3,-4.794419557E-2,-1.476548519E-2
7.340515625E0,-1.242674422E-2,-3.848451003E-2,-1.113520097E-2
7.345478125E0,-1.242674422E-2,-3.848451003E-2,-1.113520097E-2
7.350440625E0,-1.748819835E-2,-1.565560326E-2,-7.155850064E-3
7.355404687E0,-1.748819835E-2,-1.565560326E-2,-7.155850064E-3
7.360367187E0,-2.555162087E-2,1.012290944E-3,-4.572762642E-3
7.365329687E0,-2.555162087E-2,1.012290944E-3,-4.572762642E-3
7.370293750E0,-6.108652335E-3,5.096361507E-3,3.839724232E-4
7.375257812E0,-6.108652335E-3,5.096361507E-3,3.839724232E-4
7.380220312E0,-6.946410518E-3,8.063420653E-3,2.356194425E-3
7.385182812E0,-6.946410518E-3,8.063420653E-3,2.356194425E-3
7.390146875E0,-6.230825558E-3,6.143558770E-3,4.310963210E-3
7.395109375E0,-6.230825558E-3,6.143558770E-3,4.310963210E-3
7.400073437E0,-2.740166895E-2,2.036799304E-2,3.129375353E-2
7.405035937E0,-2.740166895E-2,2.036799304E-2,3.129375353E-2
7.410000000E0,-2.241002768E-2,1.352630183E-2,3.314380348E-2
7.414962500E0,-2.241002768E-2,1.352630183E-2,3.314380348E-2
7.419925000E0,-2.019345947E-2,1.244419720E-2,2.972295694E-2
7.424889062E0,-2.019345947E-2,1.244419720E-2,2.972295694E-2
7.429851562E0,-1.663298719E-2,1.171115879E-2,2.494075522E-2
7.434815625E0,-1.663298719E-2,1.171115879E-2,2.494075522E-2
7.439778125E0,-1.315978263E-2,8.203047328E-3,1.965240762E-2
7.444740625E0,-1.315978263E-2,8.203047328E-3,1.965240762E-2
7.449704687E0,-9.704031050E-3,1.115265395E-2,1.546361670E-2
7.454667187E0,-9.704031050E-3,1.115265395E-2,1.546361670E-2
7.459631250E0,-4.485496320E-3,-1.047197584E-4,1.314232964E-2
7.464593750E0,-4.485496320E-3,-1.047197584E-4,1.314232964E-2
7.469557812E0,2.513274085E-3,-2.261946723E-2,6.003932562E-3
7.474520312E0,2.513274085E-3,-2.261946723E-2,6.003932562E-3
7.479482812E0,1.319468953E-2,-4.567526653E-2,-2.408554312E-3
7.484446875E0,1.319468953E-2,-4.567526653E-2,-2.408554312E-3
7.489409375E0,2.701769583E-2,-7.820820063E-2,-1.214749180E-2
7.494373437E0,2.701769583E-2,-7.820820063E-2,-1.214749180E-2
7.499335937E0,3.714060783E-2,-9.292133152E-2,-2.069960535E-2
7.504300000E0,3.714060783E-2,-9.292133152E-2,-2.069960535E-2
7.509262500E0,3.895574808E-2,-9.400343150E-2,-2.893755957E-2
7.514225000E0,3.895574808E-2,-9.400343150E-2,-2.893755957E-2
7.519189062E0,3.445279971E-2,-9.276425093E-2,-3.740240633E-2
7.524151562E0,3.445279971E-2,-9.276425093E-2,-3.740240633E-2
7.529115625E0,2.720968239E-2,-8.054694533E-2,-4.399975017E-2
7.534078125E0,2.720968239E-2,-8.054694533E-2,-4.399975017E-2
7.539040625E0,2.055997774E-2,-7.239625603E-2,-4.687954485E-2
7.544004687E0,2.055997774E-2,-7.239625603E-2,-4.687954485E-2
7.548967187E0,1.680752076E-2,-6.698573381E-2,-4.742059484E-2
7.553931250E0,1.680752076E-2,-6.698573381E-2,-4.742059484E-2
7.558893750E0,1.240929123E-2,-5.745624006E-2,-4.677482322E-2
7.563856250E0,1.240929123E-2,-5.745624006E-2,-4.677482322E-2
7.568820312E0,4.293509759E-3,-3.843215108E-2,-4.553563893E-2
7.573784375E0,4.293509759E-3,-3.843215108E-2,-4.553563893E-2
7.578746875E0,-1.605702913E-3,-3.178244457E-2,-4.447098821E-2
7.583709375E0,-1.605702913E-3,-3.178244457E-2,-4.447098821E-2
7.588671875E0,1.815142459E-3,-4.663519561E-2,-4.244640842E-2
7.593635937E0,1.815142459E-3,-4.663519561E-2,-4.244640842E-2
7.598598437E0,9.512044489E-3,-6.888814270E-2,-3.974114731E-2
7.603562500E0,9.512044489E-3,-6.888814270E-2,-3.974114731E-2
7.608525000E0,1.452113967E-2,-7.744026184E-2,-3.525565192E-2
7.613489062E0,1.452113967E-2,-7.744026184E-2,-3.525565192E-2
7.618451562E0,1.422443334E-2,-7.457792014E-2,-3.064798191E-2
7.623415625E0,1.422443334E-2,-7.457792014E-2,-3.064798191E-2
7.628378125E0,2.457423508E-2,-1.009498462E-1,-3.042108938E-2
7.633340625E0,2.457423508E-2,-1.009498462E-1,-3.042108938E-2
7.638304687E0,4.190535471E-2,-1.418778151E-1,-3.206169978E-2
7.643267187E0,4.190535471E-2,-1.418778151E-1,-3.206169978E-2
7.648231250E0,5.209807679E-2,-1.504997462E-1,-2.794272080E-2
7.653192187E0,5.209807679E-2,-1.504997462E-1,-2.794272080E-2
7.658156250E0,5.187118426E-2,-1.394692659E-1,-1.830850355E-2
7.663118750E0,5.187118426E-2,-1.394692659E-1,-1.830850355E-2
7.668084375E0,4.571017250E-2,-1.022064835E-1,-5.602506921E-3
7.673046875E0,4.571017250E-2,-1.022064835E-1,-5.602506921E-3
7.678009375E0,3.837978840E-2,-6.562437862E-2,7.435102481E-3
7.682973437E0,3.837978840E-2,-6.562437862E-2,7.435102481E-3
7.687935937E0,3.241076320E-2,-1.549852360E-2,2.050761878E-2
7.692900000E0,3.241076320E-2,-1.549852360E-2,2.050761878E-2
7.697862500E0,2.820452116E-2,4.590216093E-3,2.738421597E-2
7.702825000E0,2.820452116E-2,4.590216093E-3,2.738421597E-2
7.707789062E0,2.474876866E-2,1.113520097E-2,2.752384171E-2
7.712751562E0,2.474876866E-2,1.113520097E-2,2.752384171E-2
7.717714062E0,2.157226950E-2,1.928588748E-2,2.563888580E-2
7.722678125E0,2.157226950E-2,1.928588748E-2,2.563888580E-2
7.727640625E0,1.647590846E-2,3.452261165E-2,2.658136375E-2
7.732604687E0,1.647590846E-2,3.452261165E-2,2.658136375E-2
7.737567187E0,7.661995478E-3,5.745624006E-2,2.890265174E-2
7.742531250E0,7.661995478E-3,5.745624006E-2,2.890265174E-2
7.747493750E0,-1.937315450E-3,7.382743061E-2,3.022910282E-2
7.752457812E0,-1.937315450E-3,7.382743061E-2,3.022910282E-2
7.757418750E0,-1.364847459E-2,1.095543131E-1,3.495894372E-2
7.762382812E0,-1.364847459E-2,1.095543131E-1,3.495894372E-2
7.767345312E0,-2.577851340E-2,1.420523524E-1,3.982841223E-2
7.772309375E0,-2.577851340E-2,1.420523524E-1,3.982841223E-2
7.777273437E0,-3.904301673E-2,1.803623289E-1,4.448844120E-2
7.782235937E0,-3.904301673E-2,1.803623289E-1,4.448844120E-2
7.787200000E0,-4.958480224E-2,2.115513533E-1,4.673991725E-2
7.792162500E0,-4.958480224E-2,2.115513533E-1,4.673991725E-2
7.797126562E0,-5.515240505E-2,2.173458487E-1,4.513421282E-2
7.802089062E0,-5.515240505E-2,2.173458487E-1,4.513421282E-2
7.807053125E0,-5.658357590E-2,2.044478655E-1,4.117231816E-2
7.812015625E0,-5.658357590E-2,2.044478655E-1,4.117231816E-2
7.816978125E0,-5.387831479E-2,1.811477244E-1,3.708824515E-2
7.821942187E0,-5.387831479E-2,1.811477244E-1,3.708824515E-2
7.826904687E0,-4.879940674E-2,1.652826816E-1,3.567453101E-2
7.831868750E0,-4.879940674E-2,1.652826816E-1,3.567453101E-2
7.836831250E0,-4.406956211E-2,1.591042131E-1,3.958406672E-2
7.841793750E0,-4.406956211E-2,1.591042131E-1,3.958406672E-2
7.846757812E0,-3.928736225E-2,1.519832760E-1,4.588470608E-2
7.851720312E0,-3.928736225E-2,1.519832760E-1,4.588470608E-2
7.856684375E0,-3.529055789E-2,1.490162164E-1,5.328490213E-2
7.861646875E0,-3.529055789E-2,1.490162164E-1,5.328490213E-2
7.866610937E0,-3.131120652E-2,1.420872509E-1,6.197664142E-2
7.871573437E0,-3.131120652E-2,1.420872509E-1,6.197664142E-2
7.876535937E0,-2.747148275E-2,1.357167959E-1,6.928957254E-2
7.881498437E0,-2.747148275E-2,1.357167959E-1,6.928957254E-2
7.886462500E0,-2.385865152E-2,1.347394139E-1,7.757988572E-2
7.891425000E0,-2.385865152E-2,1.347394139E-1,7.757988572E-2
7.896389062E0,-1.864011586E-2,1.254018992E-1,8.108799905E-2
7.901353125E0,-1.864011586E-2,1.254018992E-1,8.108799905E-2
7.906315625E0,-1.450368576E-2,1.240754575E-1,8.319984376E-2
7.911278125E0,-1.450368576E-2,1.240754575E-1,8.319984376E-2
7.916242187E0,-1.356120780E-2,1.385791451E-1,8.691739291E-2
7.921204687E0,-1.356120780E-2,1.385791451E-1,8.691739291E-2
7.926167187E0,-1.469567232E-2,1.718800217E-1,9.056513757E-2
7.931131250E0,-1.469567232E-2,1.718800217E-1,9.056513757E-2
7.936095312E0,-1.469567232E-2,1.888097227E-1,8.990190923E-2
7.941057812E0,-1.469567232E-2,1.888097227E-1,8.990190923E-2
7.946020312E0,-1.600466855E-2,1.919687688E-1,8.641125262E-2
7.950984375E0,-1.600466855E-2,1.919687688E-1,8.641125262E-2
7.955945312E0,-2.600540593E-2,1.956863105E-1,8.196066320E-2
7.960910937E0,-2.600540593E-2,1.956863105E-1,8.196066320E-2
7.965873437E0,-4.187044874E-2,2.228087336E-1,7.936012000E-2
7.970837500E0,-4.187044874E-2,2.228087336E-1,7.936012000E-2
7.975800000E0,-5.745624006E-2,2.536661625E-1,7.698646933E-2
7.980762500E0,-5.745624006E-2,2.536661625E-1,7.698646933E-2
7.985726562E0,-6.194173545E-2,2.577676773E-1,7.206464559E-2
7.990689062E0,-6.194173545E-2,2.577676773E-1,7.206464559E-2
7.995653125E0,-5.593780056E-2,2.327396572E-1,6.489133835E-2
8.000615625E0,-5.593780056E-2,2.327396572E-1,6.489133835E-2
8.005578125E0,-4.764748737E-2,1.950929016E-1,5.331980810E-2
8.010542187E0,-4.764748737E-2,1.950929016E-1,5.331980810E-2
8.015504687E0,-4.225442186E-2,1.498190612E-1,3.748967126E-2
8.020468750E0,-4.225442186E-2,1.498190612E-1,3.748967126E-2
8.025431250E0,-3.930481523E-2,1.068141535E-1,2.021091245E-2
8.030393750E0,-3.930481523E-2,1.068141535E-1,2.021091245E-2
8.035357812E0,-3.808308393E-2,7.157595456E-2,3.316125600E-3
8.040321875E0,-3.808308393E-2,7.157595456E-2,3.316125600E-3
8.045284375E0,-3.686135262E-2,4.653047770E-2,-9.599311277E-3
8.050246875E0,-3.686135262E-2,4.653047770E-2,-9.599311277E-3
8.055209375E0,-3.668681905E-2,1.717403904E-2,-1.832595654E-2
8.060173437E0,-3.668681905E-2,1.717403904E-2,-1.832595654E-2
8.065137500E0,-3.499384969E-2,1.675516134E-3,-2.029817924E-2
8.070100000E0,-3.499384969E-2,1.675516134E-3,-2.029817924E-2
8.075062500E0,-3.089232743E-2,-2.419026382E-2,-2.412045002E-2
8.080026562E0,-3.089232743E-2,-2.419026382E-2,-2.412045002E-2
8.084989062E0,-2.623229846E-2,-3.445279971E-2,-2.415535599E-2
8.089953125E0,-2.623229846E-2,-3.445279971E-2,-2.415535599E-2
8.094915625E0,-2.378883772E-2,-5.571090803E-2,-2.392846346E-2
8.099879687E0,-2.378883772E-2,-5.571090803E-2,-2.392846346E-2
8.104842187E0,-1.672025397E-2,-8.278096467E-2,-2.263692021E-2
8.109804687E0,-1.672025397E-2,-8.278096467E-2,-2.263692021E-2
8.114767187E0,-5.393067375E-3,-1.096241325E-1,-2.111848444E-2
8.119731250E0,-5.393067375E-3,-1.096241325E-1,-2.111848444E-2
8.124693750E0,5.253441166E-3,-1.310916841E-1,-2.108357660E-2
8.129657812E0,5.253441166E-3,-1.310916841E-1,-2.108357660E-2
8.134620312E0,1.005309634E-2,-1.404466480E-1,-1.965240762E-2
8.139584375E0,1.005309634E-2,-1.404466480E-1,-1.965240762E-2
8.144546875E0,9.564404376E-3,-1.332558841E-1,-1.289798319E-2
8.149509375E0,9.564404376E-3,-1.332558841E-1,-1.289798319E-2
8.154473437E0,6.684611086E-3,-1.189267337E-1,-3.996803891E-3
8.159437500E0,6.684611086E-3,-1.189267337E-1,-3.996803891E-3
8.164400000E0,3.281218931E-3,-1.023984700E-1,4.310963210E-3
8.169364062E0,3.281218931E-3,-1.023984700E-1,4.310963210E-3
8.174326562E0,1.902408898E-3,-9.400343150E-2,9.197885171E-3
8.179289062E0,1.902408898E-3,-9.400343150E-2,9.197885171E-3
8.184253125E0,2.792526793E-4,-1.726130582E-2,1.884955564E-3
8.189215625E0,2.792526793E-4,-1.726130582E-2,1.884955564E-3
8.194178125E0,-5.235987919E-5,-2.061233856E-2,1.954768784E-3
8.199142187E0,-5.235987919E-5,-2.061233856E-2,1.954768784E-3
8.204104687E0,-1.012290944E-3,-1.951278187E-2,2.670353744E-3
8.209068750E0,-1.012290944E-3,-1.951278187E-2,2.670353744E-3
8.214031250E0,-2.234021435E-3,-1.982693933E-2,3.490658477E-3
8.218995312E0,-2.234021435E-3,-1.982693933E-2,3.490658477E-3
8.223957812E0,-1.778490469E-2,-1.008276716E-1,2.268928103E-2
8.228921875E0,-1.778490469E-2,-1.008276716E-1,2.268928103E-2
8.233884375E0,-2.296853252E-2,-1.033234894E-1,2.277654596E-2
8.238846875E0,-2.296853252E-2,-1.033234894E-1,2.277654596E-2
8.243810937E0,-2.707005665E-2,-1.019795910E-1,2.328269184E-2
8.248773437E0,-2.707005665E-2,-1.019795910E-1,2.328269184E-2
8.253735937E0,-2.724459022E-2,-9.098401666E-2,2.551671304E-2
8.258700000E0,-2.724459022E-2,-9.098401666E-2,2.551671304E-2
8.263664062E0,-2.541199327E-2,-6.466444582E-2,3.099704720E-2
8.268626562E0,-2.541199327E-2,-6.466444582E-2,3.099704720E-2
8.273589062E0,-2.157226950E-2,-5.401793867E-2,3.246312216E-2
8.278553125E0,-2.157226950E-2,-5.401793867E-2,3.246312216E-2
8.283515625E0,-1.836086437E-2,-5.185373127E-2,2.926917188E-2
8.288479687E0,-1.836086437E-2,-5.185373127E-2,2.926917188E-2
8.293442187E0,-1.617920212E-2,-5.101597309E-2,2.466150187E-2
8.298404687E0,-1.617920212E-2,-5.101597309E-2,2.466150187E-2
8.303367187E0,-1.411971357E-2,-6.049311161E-2,1.900663599E-2
8.308331250E0,-1.411971357E-2,-6.049311161E-2,1.900663599E-2
8.313293750E0,-1.015781611E-2,-7.436847687E-2,1.424188633E-2
8.318257812E0,-1.015781611E-2,-7.436847687E-2,1.424188633E-2
8.323221875E0,-3.455751808E-3,-8.381070942E-2,1.225221157E-2
8.328184375E0,-3.455751808E-3,-8.381070942E-2,1.225221157E-2
8.333146875E0,3.263765713E-3,-8.372344077E-2,1.197295822E-2
8.338109375E0,3.263765713E-3,-8.372344077E-2,1.197295822E-2
8.343073437E0,6.824237294E-3,-7.382743061E-2,1.305506285E-2
8.348035937E0,6.824237294E-3,-7.382743061E-2,1.305506285E-2
8.353000000E0,8.552113548E-3,-6.234316155E-2,1.455604564E-2
8.357962500E0,8.552113548E-3,-6.234316155E-2,1.455604564E-2
8.362926562E0,9.442231618E-3,-5.846852809E-2,1.518436428E-2
8.367889062E0,9.442231618E-3,-5.846852809E-2,1.518436428E-2
8.372851562E0,1.268854365E-2,-6.065019220E-2,1.452113967E-2
8.377815625E0,1.268854365E-2,-6.065019220E-2,1.452113967E-2
8.382778125E0,1.509709843E-2,-6.756169349E-2,1.129228063E-2
8.387742187E0,1.509709843E-2,-6.756169349E-2,1.129228063E-2
8.392704687E0,1.708677411E-2,-6.754424423E-2,8.011061698E-3
8.397668750E0,1.708677411E-2,-6.754424423E-2,8.011061698E-3
8.402631250E0,1.741838641E-2,-6.595598906E-2,4.852015525E-3
8.407593750E0,1.741838641E-2,-6.595598906E-2,4.852015525E-3
8.412557812E0,1.553343050E-2,-5.311036855E-2,4.956734832E-3
8.417520312E0,1.553343050E-2,-5.311036855E-2,4.956734832E-3
8.422484375E0,1.387536712E-2,-5.195845291E-2,-1.256637042E-3
8.427446875E0,1.387536712E-2,-5.195845291E-2,-1.256637042E-3
8.432409375E0,2.513274085E-3,-1.096066739E-2,-2.792526735E-3
8.437373437E0,2.513274085E-3,-1.096066739E-2,-2.792526735E-3
8.442335937E0,2.687806962E-3,-1.380555425E-2,-6.195918657E-3
8.447300000E0,2.687806962E-3,-1.380555425E-2,-6.195918657E-3
8.452262500E0,2.844886621E-3,-1.666789502E-2,-8.255407214E-3
8.457225000E0,2.844886621E-3,-1.666789502E-2,-8.255407214E-3
8.462189062E0,3.141592722E-3,-1.731366664E-2,-8.220500313E-3
8.467151562E0,3.141592722E-3,-1.731366664E-2,-8.220500313E-3
8.472115625E0,3.769911127E-3,-1.583013684E-2,-7.295476273E-3
8.477078125E0,3.769911127E-3,-1.583013684E-2,-7.295476273E-3
8.482042187E0,2.464404888E-2,-6.538003683E-2,-3.164282069E-2
8.487004687E0,2.464404888E-2,-6.538003683E-2,-3.164282069E-2
8.491968750E0,3.092723340E-2,-6.260495633E-2,-2.769837528E-2
8.496931250E0,3.092723340E-2,-6.260495633E-2,-2.769837528E-2
8.501893750E0,3.860668465E-2,-6.981316954E-2,-2.691297606E-2
8.506857812E0,3.860668465E-2,-6.981316954E-2,-2.691297606E-2
8.511820312E0,4.764748737E-2,-7.464773208E-2,-2.680825815E-2
8.516784375E0,4.764748737E-2,-7.464773208E-2,-2.680825815E-2
8.521746875E0,5.283111706E-2,-7.593927532E-2,-2.741912194E-2
8.526709375E0,5.283111706E-2,-7.593927532E-2,-2.741912194E-2
8.531673437E0,5.312782153E-2,-7.681193948E-2,-3.078760765E-2
8.536635937E0,5.312782153E-2,-7.681193948E-2,-3.078760765E-2
8.541600000E0,5.194099993E-2,-8.700466156E-2,-4.288274050E-2
8.546562500E0,5.194099993E-2,-8.700466156E-2,-4.288274050E-2
8.551526562E0,4.989896342E-2,-1.117534339E-1,-6.621779501E-2
8.556489062E0,4.989896342E-2,-1.117534339E-1,-6.621779501E-2
8.561451562E0,4.872959107E-2,-1.454906464E-1,-9.686577320E-2
8.566415625E0,4.872959107E-2,-1.454906464E-1,-9.686577320E-2
8.571378125E0,4.572762549E-2,-1.873960048E-1,-1.265887320E-1
8.576342187E0,4.572762549E-2,-1.873960048E-1,-1.265887320E-1
8.581304687E0,4.143411666E-2,-2.191435397E-1,-1.474105120E-1
8.586268750E0,4.143411666E-2,-2.191435397E-1,-1.474105120E-1
8.591231250E0,3.696607426E-2,-2.175552845E-1,-1.521752626E-1
8.596193750E0,3.696607426E-2,-2.175552845E-1,-1.521752626E-1
8.601157812E0,3.403392062E-2,-2.105390728E-1,-1.453161091E-1
8.606120312E0,3.403392062E-2,-2.105390728E-1,-1.453161091E-1
8.611084375E0,3.050835431E-2,-1.978854239E-1,-1.313185692E-1
8.616046875E0,3.050835431E-2,-1.978854239E-1,-1.313185692E-1
8.621010937E0,2.462659590E-2,-1.749867052E-1,-1.140398160E-1
8.625973437E0,2.462659590E-2,-1.749867052E-1,-1.140398160E-1
8.630935937E0,1.516691130E-2,-1.382649839E-1,-9.747663885E-2
8.635900000E0,1.516691130E-2,-1.382649839E-1,-9.747663885E-2
8.640862500E0,1.064650831E-3,-1.087689176E-1,-8.354891092E-2
8.645826562E0,1.064650831E-3,-1.087689176E-1,-8.354891092E-2
8.650789062E0,-1.696459949E-2,-5.119050667E-2,-6.951646507E-2
8.655753125E0,-1.696459949E-2,-5.119050667E-2,-6.951646507E-2
8.660715625E0,-3.122393973E-2,-2.792526793E-4,-5.436700583E-2
8.665678125E0,-3.122393973E-2,-2.792526793E-4,-5.436700583E-2
8.670642187E0,-3.642502055E-2,2.968805097E-2,-3.879866749E-2
8.675604687E0,-3.642502055E-2,2.968805097E-2,-3.879866749E-2
8.680568750E0,-3.761184588E-2,4.319689795E-2,-2.686061710E-2
8.685531250E0,-3.761184588E-2,4.319689795E-2,-2.686061710E-2
8.690495312E0,-3.721041977E-2,5.256931856E-2,-1.960004680E-2
8.695457812E0,-3.721041977E-2,5.256931856E-2,-1.960004680E-2
8.700420312E0,-3.696607426E-2,5.600761622E-2,-1.788962446E-2
8.705384375E0,-3.696607426E-2,5.600761622E-2,-1.788962446E-2
8.710346875E0,-3.687880561E-2,5.344198272E-2,-1.781981252E-2
8.715310937E0,-3.687880561E-2,5.344198272E-2,-1.781981252E-2
8.720273437E0,-3.757693991E-2,5.012585595E-2,-1.713913307E-2
8.725237500E0,-3.757693991E-2,5.012585595E-2,-1.713913307E-2
8.730200000E0,-3.663446009E-2,4.897394031E-2,-1.539380383E-2
8.735162500E0,-3.663446009E-2,4.897394031E-2,-1.539380383E-2
8.740126562E0,-3.637266159E-2,4.883431271E-2,-1.411971357E-2
8.745089062E0,-3.637266159E-2,4.883431271E-2,-1.411971357E-2
8.750053125E0,-3.963642567E-2,5.073672161E-2,-1.399754081E-2
8.755015625E0,-3.963642567E-2,5.073672161E-2,-1.399754081E-2
8.759978125E0,-4.581489414E-2,6.857398897E-2,-9.756390937E-3
8.764942187E0,-4.581489414E-2,6.857398897E-2,-9.756390937E-3
8.769904687E0,-5.124286562E-2,9.171704948E-2,-2.565633971E-3
8.774867187E0,-5.124286562E-2,9.171704948E-2,-2.565633971E-3
8.779831250E0,-5.476843193E-2,1.006705910E-1,3.089232836E-3
8.784795312E0,-5.476843193E-2,1.006705910E-1,3.089232836E-3
8.789757812E0,-6.012659147E-2,1.128704399E-1,6.614797749E-3
8.794721875E0,-6.012659147E-2,1.128704399E-1,6.614797749E-3
8.799684375E0,-6.323327869E-2,1.250702888E-1,1.174606569E-2
8.804646875E0,-6.323327869E-2,1.250702888E-1,1.174606569E-2
8.809610937E0,-7.002261281E-2,1.460666060E-1,2.511528693E-2
8.814573437E0,-7.002261281E-2,1.460666060E-1,2.511528693E-2
8.819537500E0,-8.032005280E-2,1.844463944E-1,4.761258140E-2
8.824500000E0,-8.032005280E-2,1.844463944E-1,4.761258140E-2
8.829464062E0,-9.157742560E-2,2.126160115E-1,6.862634420E-2
8.834426562E0,-9.157742560E-2,2.126160115E-1,6.862634420E-2
8.839389062E0,-1.002691686E-1,2.272942215E-1,8.511970937E-2
8.844353125E0,-1.002691686E-1,2.272942215E-1,8.511970937E-2
8.849315625E0,-1.060113013E-1,2.518859208E-1,1.012465507E-1
8.854279687E0,-1.060113013E-1,2.518859208E-1,1.012465507E-1
8.859242187E0,-1.088736355E-1,2.760412693E-1,1.185602173E-1
8.864206250E0,-1.088736355E-1,2.760412693E-1,1.185602173E-1
8.869168750E0,-1.062032878E-1,3.044552207E-1,1.384744197E-1
8.874131250E0,-1.062032878E-1,3.044552207E-1,1.384744197E-1
8.879095312E0,-1.012814566E-1,3.105115294E-1,1.543569118E-1
8.884057812E0,-1.012814566E-1,3.105115294E-1,1.543569118E-1
8.889020312E0,-9.339256585E-2,3.082425892E-1,1.661902517E-1
8.893984375E0,-9.339256585E-2,3.082425892E-1,1.661902517E-1
8.898946875E0,-8.227481693E-2,3.068637848E-1,1.747423708E-1
8.903910937E0,-8.227481693E-2,3.068637848E-1,1.747423708E-1
8.908873437E0,-7.094763219E-2,2.913303673E-1,1.771509200E-1
8.913837500E0,-7.094763219E-2,2.913303673E-1,1.771509200E-1
8.918800000E0,-6.347762793E-2,2.771408260E-1,1.779712290E-1
8.923764062E0,-6.347762793E-2,2.771408260E-1,1.779712290E-1
8.928726562E0,-5.311036855E-2,2.491806597E-1,1.742711216E-1
8.933689062E0,-5.311036855E-2,2.491806597E-1,1.742711216E-1
8.938653125E0,-3.474950418E-2,1.952499896E-1,1.643925607E-1
8.943615625E0,-3.474950418E-2,1.952499896E-1,1.643925607E-1
8.948579687E0,-1.324704941E-2,1.225395650E-1,1.518611014E-1
8.953542187E0,-1.324704941E-2,1.225395650E-1,1.518611014E-1
8.958504687E0,4.764748737E-3,6.045820564E-2,1.392947286E-1
8.963468750E0,4.764748737E-3,6.045820564E-2,1.392947286E-1
8.968431250E0,1.624901593E-2,1.928588748E-2,1.268854290E-1
8.973395312E0,1.624901593E-2,1.928588748E-2,1.268854290E-1
8.978357812E0,1.525417715E-2,1.399754081E-2,1.182984188E-1
8.983321875E0,1.525417715E-2,1.399754081E-2,1.182984188E-1
8.988284375E0,4.904375412E-3,3.035127558E-2,1.146332249E-1
8.993246875E0,4.904375412E-3,3.035127558E-2,1.146332249E-1
8.998210937E0,-4.276056774E-3,5.066690966E-2,1.142143458E-1
9.003173437E0,-4.276056774E-3,5.066690966E-2,1.142143458E-1
9.008137500E0,-8.185594343E-3,6.785839796E-2,1.172861233E-1
9.013100000E0,-8.185594343E-3,6.785839796E-2,1.172861233E-1
9.018064062E0,-9.843656793E-3,8.698721230E-2,1.218065247E-1
9.023026562E0,-9.843656793E-3,8.698721230E-2,1.218065247E-1
9.027990625E0,-2.359685116E-2,1.349139512E-1,1.285609454E-1
9.032953125E0,-2.359685116E-2,1.349139512E-1,1.285609454E-1
9.037915625E0,-4.525638744E-2,2.017775178E-1,1.364847422E-1
9.042879687E0,-4.525638744E-2,2.017775178E-1,1.364847422E-1
9.047842187E0,-6.382668763E-2,2.483603507E-1,1.421570629E-1
9.052806250E0,-6.382668763E-2,2.483603507E-1,1.421570629E-1
9.057768750E0,-7.093018293E-2,2.614154220E-1,1.459967941E-1
9.062732812E0,-7.093018293E-2,2.614154220E-1,1.459967941E-1
9.067695312E0,-6.583382189E-2,2.493377328E-1,1.472708881E-1
9.072657812E0,-6.583382189E-2,2.493377328E-1,1.472708881E-1
9.077621875E0,-5.754350498E-2,2.197893113E-1,1.419999897E-1
9.082584375E0,-5.754350498E-2,2.197893113E-1,1.419999897E-1
9.087548437E0,-4.948008433E-2,1.881639510E-1,1.302888244E-1
9.092510937E0,-4.948008433E-2,1.881639510E-1,1.302888244E-1
9.097473437E0,-4.394739121E-2,1.648637950E-1,1.146681309E-1
9.102437500E0,-4.394739121E-2,1.648637950E-1,1.146681309E-1
9.107400000E0,-3.946189582E-2,1.500284970E-1,9.922196716E-2
9.112364062E0,-3.946189582E-2,1.500284970E-1,9.922196716E-2
9.117326562E0,-3.639011458E-2,1.372876018E-1,8.545131981E-2
9.122290625E0,-3.639011458E-2,1.372876018E-1,8.545131981E-2
9.127253125E0,-3.302162886E-2,1.197121367E-1,7.391469181E-2
9.132215625E0,-3.302162886E-2,1.197121367E-1,7.391469181E-2
9.137179687E0,-2.921681106E-2,1.015432552E-1,6.330309063E-2
9.142142187E0,-2.921681106E-2,1.015432552E-1,6.330309063E-2
9.147106250E0,-2.583087236E-2,8.246680349E-2,4.743804783E-2
9.152068750E0,-2.583087236E-2,8.246680349E-2,4.743804783E-2
9.157032812E0,-2.300344035E-2,5.742133036E-2,2.659881860E-2
9.161995312E0,-2.300344035E-2,5.742133036E-2,2.659881860E-2
9.166957812E0,-2.064724453E-2,3.405137360E-2,7.295476273E-3
9.171921875E0,-2.064724453E-2,3.405137360E-2,7.295476273E-3
9.176884375E0,-1.633628085E-2,1.085594762E-2,-6.998770405E-3
9.181848437E0,-1.633628085E-2,1.085594762E-2,-6.998770405E-3
9.186810937E0,-9.529497474E-3,-2.075196430E-2,-2.047271281E-2
9.191773437E0,-9.529497474E-3,-2.075196430E-2,-2.047271281E-2
9.196737500E0,1.483529806E-3,-5.810201168E-2,-3.255039081E-2
9.201700000E0,1.483529806E-3,-5.810201168E-2,-3.255039081E-2
9.206664062E0,1.223475765E-2,-9.473647177E-2,-4.328416660E-2
9.211626562E0,1.223475765E-2,-9.473647177E-2,-4.328416660E-2
9.216590625E0,1.699950732E-2,-1.114218161E-1,-4.963716492E-2
9.221553125E0,1.699950732E-2,-1.114218161E-1,-4.963716492E-2
9.226515625E0,1.452113967E-2,-1.088212803E-1,-5.270894244E-2
9.231479687E0,1.452113967E-2,-1.088212803E-1,-5.270894244E-2
9.236442187E0,1.015781611E-2,-9.950122237E-2,-5.471607298E-2
9.241404687E0,1.015781611E-2,-9.950122237E-2,-5.471607298E-2
9.246368750E0,7.243116386E-3,-9.114108980E-2,-5.586798862E-2
9.251332812E0,7.243116386E-3,-9.114108980E-2,-5.586798862E-2
9.256295312E0,4.921828397E-3,-8.669050038E-2,-5.735151842E-2
9.261257812E0,4.921828397E-3,-8.669050038E-2,-5.735151842E-2
9.266221875E0,4.014257342E-3,-8.630653471E-2,-5.963790044E-2
9.271184375E0,4.014257342E-3,-8.630653471E-2,-5.963790044E-2
9.276148437E0,3.316125600E-3,-8.389797807E-2,-6.204645336E-2
9.281110937E0,3.316125600E-3,-8.389797807E-2,-6.204645336E-2
9.286073437E0,3.176499158E-3,-7.438593358E-2,-5.853834376E-2
9.291035937E0,3.176499158E-3,-7.438593358E-2,-5.853834376E-2
9.296000000E0,8.377580671E-4,-1.399754081E-2,-1.040216256E-2
9.300964062E0,8.377580671E-4,-1.399754081E-2,-1.040216256E-2
9.305926562E0,9.773843922E-4,-1.389282104E-2,-1.048942842E-2
9.310890625E0,9.773843922E-4,-1.389282104E-2,-1.048942842E-2
9.315853125E0,1.710422686E-3,-1.441641990E-2,-1.052433532E-2
9.320817187E0,1.710422686E-3,-1.441641990E-2,-1.052433532E-2
9.325779687E0,3.420845373E-3,-1.802925020E-2,-1.101302728E-2
9.330742187E0,3.420845373E-3,-1.802925020E-2,-1.101302728E-2
9.335706250E0,6.352998316E-3,-2.502802201E-2,-1.179842558E-2
9.340668750E0,6.352998316E-3,-2.502802201E-2,-1.179842558E-2
9.345632812E0,9.546951391E-3,-3.138101846E-2,-1.237438433E-2
9.350595312E0,9.546951391E-3,-3.138101846E-2,-1.237438433E-2
9.355557812E0,1.200786512E-2,-3.558726236E-2,-1.267109066E-2
9.360521875E0,1.200786512E-2,-3.558726236E-2,-1.267109066E-2
9.365484375E0,1.308996975E-2,-3.743731230E-2,-1.272345055E-2
9.370448437E0,1.308996975E-2,-3.743731230E-2,-1.272345055E-2
9.375410937E0,1.293289009E-2,-3.296926990E-2,-1.199041214E-2
9.380373437E0,1.293289009E-2,-3.296926990E-2,-1.199041214E-2
9.385335937E0,1.263618376E-2,-2.905973233E-2,-1.130973361E-2
9.390301562E0,1.263618376E-2,-2.905973233E-2,-1.130973361E-2
9.395262500E0,1.204277202E-2,-2.722713538E-2,-1.089085452E-2
9.400226562E0,1.204277202E-2,-2.722713538E-2,-1.089085452E-2
9.405189062E0,1.162389293E-2,-2.581341937E-2,-1.048942842E-2
9.410151562E0,1.162389293E-2,-2.581341937E-2,-1.048942842E-2
9.415115625E0,1.130973361E-2,-2.649409883E-2,-1.024508290E-2
9.420078125E0,1.130973361E-2,-2.649409883E-2,-1.024508290E-2
9.425042187E0,1.111774705E-2,-2.635447122E-2,-9.477137588E-3
9.430006250E0,1.111774705E-2,-2.635447122E-2,-9.477137588E-3
9.434968750E0,5.689773336E-2,-1.308298856E-1,-4.113740847E-2
9.439932812E0,5.689773336E-2,-1.308298856E-1,-4.113740847E-2
9.444893750E0,5.190609023E-2,-1.183333248E-1,-2.677335031E-2
9.449857812E0,5.190609023E-2,-1.183333248E-1,-2.677335031E-2
9.454821875E0,4.963716492E-2,-1.114916354E-1,-1.431170013E-2
9.459784375E0,4.963716492E-2,-1.114916354E-1,-1.431170013E-2
9.464748437E0,4.970697686E-2,-1.120850444E-1,-4.206243437E-3
9.469710937E0,4.970697686E-2,-1.120850444E-1,-4.206243437E-3
9.474673437E0,5.007349700E-2,-1.008276716E-1,3.665191354E-3
9.479637500E0,5.007349700E-2,-1.008276716E-1,3.665191354E-3
9.484600000E0,4.326671362E-2,-7.405432314E-2,8.377579972E-3
9.489562500E0,4.326671362E-2,-7.405432314E-2,8.377579972E-3
9.494526562E0,3.536036983E-2,-5.370378122E-2,7.731808349E-3
9.499489062E0,3.536036983E-2,-5.370378122E-2,7.731808349E-3
9.504453125E0,2.977531776E-2,-3.663446009E-2,6.073745899E-3
9.509415625E0,2.977531776E-2,-3.663446009E-2,6.073745899E-3
9.514379687E0,2.419026382E-2,-3.073524870E-2,3.560471581E-3
9.519342187E0,2.419026382E-2,-3.073524870E-2,3.560471581E-3
9.524306250E0,1.251401100E-2,-3.822271014E-3,4.607669078E-3
9.529268750E0,1.251401100E-2,-3.822271014E-3,4.607669078E-3
9.534231250E0,-2.687806962E-3,2.878047898E-2,7.504915819E-3
9.539195312E0,-2.687806962E-3,2.878047898E-2,7.504915819E-3
9.544157812E0,-1.682497375E-2,6.286676228E-2,1.134464052E-2
9.549121875E0,-1.682497375E-2,6.286676228E-2,1.134464052E-2
9.554084375E0,-2.567379363E-2,8.864527196E-2,1.375319436E-2
9.559046875E0,-2.567379363E-2,8.864527196E-2,1.375319436E-2
9.564010937E0,-2.988003753E-2,9.937904775E-2,1.340412907E-2
9.568973437E0,-2.988003753E-2,9.937904775E-2,1.340412907E-2
9.573935937E0,-3.260274976E-2,1.065174416E-1,1.253146399E-2
9.578900000E0,-3.260274976E-2,1.065174416E-1,1.253146399E-2
9.583864062E0,-3.527310491E-2,1.117185280E-1,1.080358773E-2
9.588826562E0,-3.527310491E-2,1.117185280E-1,1.080358773E-2
9.593789062E0,-3.651228920E-2,1.177573651E-1,8.237954229E-3
9.598753125E0,-3.651228920E-2,1.177573651E-1,8.237954229E-3
9.603715625E0,-7.033676840E-3,2.443460934E-2,1.099557383E-3
9.608679687E0,-7.033676840E-3,2.443460934E-2,1.099557383E-3
9.613642187E0,-7.295476273E-3,2.816961333E-2,6.457717973E-4
9.618606250E0,-7.295476273E-3,2.816961333E-2,6.457717973E-4
9.623568750E0,-7.033676840E-3,2.921681106E-2,0.000000000E0
9.628531250E0,-7.033676840E-3,2.921681106E-2,0.000000000E0
9.633495312E0,-6.597344764E-3,2.553416602E-2,-8.726646192E-4
9.638457812E0,-6.597344764E-3,2.553416602E-2,-8.726646192E-4
9.643421875E0,-6.265731994E-3,2.312561311E-2,-1.012290944E-3
9.648384375E0,-6.265731994E-3,2.312561311E-2,-1.012290944E-3
9.653348437E0,-5.899212789E-3,2.221804112E-2,-5.934119690E-4
9.658310937E0,-5.899212789E-3,2.221804112E-2,-5.934119690E-4
9.663273437E0,-4.712388851E-3,1.961750165E-2,-5.235987483E-4
9.668237500E0,-4.712388851E-3,1.961750165E-2,-5.235987483E-4
9.673200000E0,-3.001966281E-3,1.570796408E-2,-8.028514567E-4
9.678162500E0,-3.001966281E-3,1.570796408E-2,-8.028514567E-4
9.683126562E0,-1.308996929E-3,1.193805225E-2,-1.064650831E-3
9.688089062E0,-1.308996929E-3,1.193805225E-2,-1.064650831E-3
9.693053125E0,3.490658492E-5,9.232792072E-3,-1.361356815E-3
9.698015625E0,3.490658492E-5,9.232792072E-3,-1.361356815E-3
9.702978125E0,5.585053586E-4,9.162978269E-3,-1.082104165E-3
9.707942187E0,5.585053586E-4,9.162978269E-3,-1.082104165E-3
9.712904687E0,4.712388909E-4,1.169370580E-2,-3.490658419E-4
9.717868750E0,4.712388909E-4,1.169370580E-2,-3.490658419E-4
9.722831250E0,5.585053586E-4,1.340412907E-2,1.221730490E-4
9.727795312E0,5.585053586E-4,1.340412907E-2,1.221730490E-4
9.732757812E0,4.886921961E-4,1.734857261E-2,6.108652451E-4
9.737721875E0,4.886921961E-4,1.734857261E-2,6.108652451E-4
9.742684375E0,4.712388909E-4,2.319542505E-2,1.082104165E-3
9.747646875E0,4.712388909E-4,2.319542505E-2,1.082104165E-3
9.752610937E0,4.712388909E-4,2.518510073E-2,1.169370604E-3
9.757573437E0,4.712388909E-4,2.518510073E-2,1.169370604E-3
9.762537500E0,4.363323096E-4,3.001966327E-2,1.291543595E-3
9.767500000E0,4.363323096E-4,3.001966327E-2,1.291543595E-3
9.772464062E0,-5.934119690E-4,1.603259444E-1,-2.705260413E-3
9.777426562E0,-5.934119690E-4,1.603259444E-1,-2.705260413E-3
9.782389062E0,-3.560471581E-3,1.433962435E-1,-2.406809106E-2
9.787353125E0,-3.560471581E-3,1.433962435E-1,-2.406809106E-2
9.792315625E0,-4.555309191E-3,1.043706909E-1,-5.187118426E-2
9.797279687E0,-4.555309191E-3,1.043706909E-1,-5.187118426E-2
9.802242187E0,-2.111848444E-3,6.979571283E-2,-7.061602175E-2
9.807204687E0,-2.111848444E-3,6.979571283E-2,-7.061602175E-2
