"Time (s)","Linear Acceleration x (m/s^2)","Linear Acceleration y (m/s^2)","Linear Acceleration z (m/s^2)"
0.000000000E0,1.118399978E0,5.342000127E-1,8.644999862E-1
9.928125000E-3,1.018800020E0,3.341999948E-1,1.516999900E-1
1.985468700E-2,5.722999573E-1,2.868999839E-1,-2.793999910E-1
2.977968700E-2,-2.259999886E-2,2.672999799E-1,-6.374999881E-1
3.970781200E-2,-4.745999873E-1,2.352999896E-1,-7.730999589E-1
4.963281200E-2,-6.940000057E-1,2.092999965E-1,-5.941999555E-1
5.955937500E-2,-8.915999532E-1,1.715999991E-1,-3.845999837E-1
6.948593700E-2,-6.347999573E-1,1.563999951E-1,-2.457999885E-1
7.941093700E-2,-3.265999854E-1,1.515000015E-1,3.920000046E-2
8.933750000E-2,-1.061000004E-1,1.665999889E-1,4.368999898E-1
9.926562500E-2,1.404999942E-1,2.633000016E-1,5.151000023E-1
1.091921870E-1,1.363999993E-1,2.513999939E-1,3.804999888E-1
1.191171870E-1,1.391000003E-1,2.795999944E-1,9.950000048E-2
1.290437500E-1,1.440999955E-1,3.346999884E-1,-6.960000098E-2
1.389703120E-1,5.339999869E-2,3.269000053E-1,5.539999902E-2
1.488968750E-1,4.839999974E-2,3.568999767E-1,1.432999969E-1
1.588234370E-1,-9.089999646E-2,4.289000034E-1,2.654999793E-1
1.687484370E-1,-8.769999444E-2,4.053999782E-1,1.880999953E-1
1.786765620E-1,1.066999957E-1,3.908999860E-1,1.099999994E-2
1.886015620E-1,6.589999795E-2,3.841999769E-1,3.099999949E-2
1.985281250E-1,3.639999777E-2,4.257999957E-1,6.859999895E-2
2.084546870E-1,3.379999846E-2,4.356999993E-1,1.155999973E-1
2.183796870E-1,-9.499999881E-2,3.851999938E-1,2.989999950E-2
2.283078120E-1,-1.541000009E-1,5.049999952E-1,5.289999768E-2
2.382328120E-1,-1.109999940E-1,4.192000031E-1,8.410000056E-2
2.481593750E-1,-1.899999916E-3,3.783999979E-1,-2.769999951E-2
2.580859370E-1,2.439999953E-2,4.041000009E-1,-4.999999702E-2
2.680109370E-1,-1.140999943E-1,3.140999973E-1,-5.659999698E-2
2.779390620E-1,-4.069999978E-2,2.985000014E-1,-1.477999985E-1
2.878656250E-1,-9.160000086E-2,2.696000040E-1,-2.154999971E-1
2.977906250E-1,-7.279999554E-2,3.039999902E-1,-9.139999747E-2
3.077171870E-1,2.869999968E-2,3.209999800E-1,2.569999918E-2
3.176437500E-1,2.529999986E-2,2.796999812E-1,1.149999946E-1
3.275703120E-1,1.500000013E-3,3.014000058E-1,1.789999902E-1
3.374953120E-1,1.719999872E-2,3.159999847E-1,1.388999969E-1
3.474234370E-1,-1.027999967E-1,3.289999962E-1,2.689999901E-2
3.573484370E-1,7.000000030E-2,3.495999873E-1,-7.400000002E-3
3.672750000E-1,1.771999896E-1,2.997999787E-1,-9.200000204E-3
3.772015620E-1,1.709999889E-1,3.560999930E-1,6.599999964E-3
3.871281250E-1,1.929000020E-1,3.129000068E-1,-3.799999878E-2
3.970546870E-1,6.229999661E-2,4.007999897E-1,6.920000166E-2
4.069812500E-1,-3.059999831E-2,3.729999959E-1,1.195999980E-1
4.169078120E-1,-5.999999866E-2,3.937000036E-1,7.869999856E-2
4.268328120E-1,2.859999985E-2,3.474999964E-1,1.367999911E-1
4.367609370E-1,5.989999697E-2,3.903999925E-1,6.939999759E-2
4.466859370E-1,2.070000023E-2,3.641999960E-1,1.052999943E-1
4.566125000E-1,1.730000041E-2,3.775999844E-1,1.499999911E-1
4.665375000E-1,-2.529999986E-2,3.603000045E-1,3.039999865E-2
4.764640620E-1,-9.089999646E-2,3.192999959E-1,-6.140000001E-2
4.863906250E-1,-9.420000017E-2,3.273999989E-1,-7.539999485E-2
4.963171870E-1,-9.739999473E-2,3.140999973E-1,-7.009999454E-2
5.062437500E-1,-9.889999777E-2,3.009999990E-1,3.480000049E-2
5.161703120E-1,1.409999933E-2,2.818000019E-1,1.315999925E-1
5.260968750E-1,-9.899999946E-3,3.152999878E-1,1.900999993E-1
5.360218750E-1,5.289999768E-2,3.062999845E-1,3.743000031E-1
5.459484370E-1,9.479999542E-2,3.783999979E-1,3.179000020E-1
5.558750000E-1,-4.499999806E-3,3.276999891E-1,5.619999766E-2
5.658015620E-1,7.069999725E-2,3.015999794E-1,-7.809999585E-2
5.757281250E-1,1.669999957E-2,2.610999942E-1,-1.673000008E-1
5.856546870E-1,-4.189999774E-2,2.202999890E-1,-2.152999938E-1
5.955796870E-1,2.679999918E-2,1.557999998E-1,-2.588000000E-1
6.055078120E-1,1.533999890E-1,6.419999897E-2,-2.969000041E-1
6.154343750E-1,9.013999701E-1,4.380000010E-2,-3.763999939E-1
6.253593750E-1,-1.188999936E-1,-5.697999597E-1,-7.163000107E-1
6.352859370E-1,-1.223899961E0,3.664000034E-1,3.740999997E-1
6.452125000E-1,-4.120000005E-1,5.080999732E-1,6.457999945E-1
6.551390620E-1,4.081999958E-1,1.750000007E-2,6.216999888E-1
6.650656250E-1,5.715999603E-1,8.609999716E-2,5.769000053E-1
6.749906250E-1,3.841999769E-1,2.069000006E-1,4.664999843E-1
6.849171870E-1,-2.749999985E-2,3.878999949E-1,4.914999902E-1
6.948437500E-1,-4.023999870E-1,5.055999756E-1,4.010999799E-1
7.047703120E-1,-2.753999829E-1,5.874999762E-1,9.089999646E-2
7.146968750E-1,2.740000002E-2,4.610999823E-1,-1.733999997E-1
7.246234370E-1,1.376999915E-1,3.222999871E-1,-2.786999941E-1
7.345500000E-1,1.790999919E-1,2.457999885E-1,-1.780999899E-1
7.444750000E-1,-1.756999940E-1,4.359999895E-1,-2.250999957E-1
7.544015620E-1,-3.102999926E-1,3.849999905E-1,-2.531000078E-1
7.643281250E-1,-2.264999896E-1,4.226999879E-1,-7.589999586E-2
7.742546870E-1,-7.429999858E-2,3.587999940E-1,3.059999831E-2
7.841812500E-1,8.599999361E-3,2.680999935E-1,1.331999898E-1
7.941078120E-1,-1.176999956E-1,2.215999961E-1,1.138999984E-1
8.040343750E-1,2.609999850E-2,2.703000009E-1,2.307999879E-1
8.139593750E-1,1.480000000E-2,3.704999983E-1,2.962999940E-1
8.238859370E-1,-6.830000132E-2,3.391999900E-1,9.769999981E-2
8.338125000E-1,-2.799999900E-2,3.252999783E-1,5.319999903E-2
8.437390620E-1,-5.799999833E-2,3.616999984E-1,8.240000159E-2
8.536656250E-1,2.539999969E-2,4.115999937E-1,3.889999911E-2
8.635921870E-1,4.669999704E-2,4.296999872E-1,1.178999990E-1
8.735171870E-1,1.159999985E-2,4.092999995E-1,2.149999887E-2
8.834437500E-1,-1.630000025E-2,4.876999855E-1,3.999999911E-2
8.933703120E-1,-3.549999744E-2,3.666999936E-1,1.599999960E-3
9.032968750E-1,-1.370000001E-2,3.643999994E-1,-2.399999881E-3
9.132234370E-1,-1.559999958E-2,3.694999814E-1,1.799999969E-3
9.231500000E-1,-1.119999960E-2,2.997999787E-1,3.969999775E-2
9.330765620E-1,1.154999956E-1,4.578000009E-1,1.730999947E-1
9.430015620E-1,1.222999990E-1,4.745999873E-1,2.953000069E-1
9.529281250E-1,-5.879999697E-2,5.202000141E-1,4.459999800E-1
9.628546870E-1,3.795000017E-1,3.849999905E-1,1.961999983E-1
9.727812500E-1,2.529999912E-1,2.225999981E-1,-3.626999855E-1
9.827078120E-1,8.049999923E-2,2.662999928E-1,-7.540000081E-1
9.926343750E-1,2.003999949E-1,2.714999914E-1,-8.130999804E-1
1.002560937E0,1.415999979E-1,2.149000019E-1,-3.712999821E-1
1.012485937E0,-6.599999964E-3,1.668999940E-1,-1.249999925E-2
1.022412500E0,-1.048999950E-1,1.852999926E-1,-1.230999976E-1
1.032339062E0,-1.164999977E-1,2.096999884E-1,-2.483999878E-1
1.042265625E0,4.010000080E-2,2.019999921E-1,1.446999907E-1
1.052192187E0,1.368999928E-1,3.344999850E-1,4.702000022E-1
1.062118750E0,1.009999961E-1,3.279999793E-1,3.068999946E-1
1.072045312E0,5.379999802E-2,3.058999777E-1,1.683000028E-1
1.081970312E0,-1.114999950E-1,3.457999825E-1,1.200000010E-2
1.091896875E0,-3.202999830E-1,5.543999672E-1,3.759999946E-2
1.101823437E0,-4.354999959E-1,4.335999787E-1,1.246999949E-1
1.111750000E0,-5.374999642E-1,3.346000016E-1,-1.399999950E-3
1.121676562E0,-5.848999619E-1,3.199000061E-1,-2.290000021E-2
1.131603125E0,-4.787999988E-1,2.727999985E-1,-1.349999942E-2
1.141529687E0,-2.336999923E-1,4.245999753E-1,1.583999991E-1
1.151454687E0,-1.070999950E-1,4.317999780E-1,-4.699999839E-2
1.161381250E0,-1.879999936E-1,3.599999845E-1,-1.523000002E-1
1.171307812E0,-1.213999987E-1,6.398000121E-1,1.260000020E-1
1.181234375E0,-1.763000011E0,7.580000162E-2,5.521000028E-1
1.191160937E0,9.002999663E-1,7.281999588E-1,-2.538000047E-1
1.201085937E0,1.251799941E0,5.733999610E-1,3.868999779E-1
1.211012500E0,1.271199942E0,2.829000056E-1,6.161999702E-1
1.220939062E0,5.661000013E-1,3.887999952E-1,4.704999924E-1
1.230865625E0,3.589999974E-1,4.806999862E-1,2.186999917E-1
1.240792187E0,6.207999587E-1,4.766999781E-1,-2.651000023E-1
1.250718750E0,5.555999875E-1,5.661000013E-1,-1.049999967E-1
1.260645312E0,7.879999876E-1,5.572999716E-1,2.358999997E-1
1.270570312E0,-7.949999720E-2,3.743000031E-1,8.350999951E-1
1.280496875E0,1.407400012E0,1.156799912E0,3.005999923E-1
1.290423437E0,5.751999617E-1,4.526000023E-1,-1.849000007E-1
1.300350000E0,-1.038800001E0,5.163999796E-1,-6.967999935E-1
1.310276562E0,-1.599499941E0,4.468999803E-1,-4.433999956E-1
1.320203125E0,-1.770699978E0,2.705999911E-1,-1.473999918E-1
1.330129687E0,-1.175499916E0,4.526000023E-1,7.059999555E-2
1.340054687E0,3.920000046E-2,1.185999960E-1,8.844999671E-1
1.349981250E0,-2.393999994E-1,2.820999920E-1,7.659999728E-1
1.359907812E0,-2.118999958E-1,3.189999983E-2,8.999999613E-2
1.369834375E0,-1.645999998E-1,1.586999893E-1,-3.982999921E-1
1.379760937E0,-2.983999848E-1,2.048999965E-1,-6.945999861E-1
1.389687500E0,2.349999920E-2,1.914999932E-1,-5.281000137E-1
1.399614062E0,1.379999965E-1,1.030000001E-1,-4.567999840E-1
1.409539062E0,6.350000203E-2,1.744000018E-1,-3.615999818E-1
1.419465625E0,2.520000003E-2,2.682999969E-1,-2.066999972E-1
1.429392187E0,5.409999937E-2,2.254000008E-1,-1.171999946E-1
1.439318750E0,-1.609999873E-2,2.192000002E-1,-2.549999952E-2
1.449245312E0,-7.449999452E-2,3.858000040E-1,4.149999842E-2
1.459171875E0,-1.294000000E-1,4.853999913E-1,3.869999945E-2
1.469098437E0,-1.403999925E-1,4.483999908E-1,3.280000016E-2
1.479023437E0,4.809999838E-2,3.892999887E-1,-6.229999661E-2
1.488950000E0,1.530999988E-1,3.534999788E-1,-3.176999986E-1
1.498876562E0,6.250000000E-2,3.878999949E-1,-7.459999621E-2
1.508803125E0,6.719999760E-2,3.729999959E-1,2.014999986E-1
1.518729687E0,1.078999937E-1,4.555999935E-1,4.553000033E-1
1.528656250E0,3.342999816E-1,3.644999862E-1,6.100000143E-1
1.538581250E0,5.281000137E-1,3.619000018E-1,6.509000063E-1
1.548507812E0,3.972999752E-1,3.813999891E-1,6.861999631E-1
1.558434375E0,9.389999509E-2,4.715999961E-1,6.451999545E-1
1.568360937E0,-8.999999613E-3,4.652999938E-1,4.431999922E-1
1.578287500E0,5.509999767E-2,4.310999811E-1,1.588999927E-1
1.588214062E0,5.749999732E-2,4.133999944E-1,-2.736999989E-1
1.598140625E0,-3.539999947E-2,3.547999859E-1,-4.957999885E-1
1.608065625E0,-1.058999971E-1,4.168999791E-1,-6.306999922E-1
1.617992187E0,2.269999869E-2,3.263999820E-1,-7.516999841E-1
1.627918750E0,1.412999928E-1,2.459999919E-1,-5.719999671E-1
1.637845312E0,1.953999996E-1,1.290999949E-1,-5.220000148E-1
1.647770312E0,1.535999924E-1,1.201999933E-1,-3.678999841E-1
1.657696875E0,1.158000007E-1,1.283999979E-1,-4.380000010E-2
1.667623437E0,2.399999881E-3,1.484999955E-1,1.674000025E-1
1.677550000E0,-1.722999960E-1,2.364999950E-1,1.477999985E-1
1.687476562E0,-2.201999873E-1,1.974999905E-1,3.044999838E-1
1.697403125E0,8.899999782E-3,2.105999887E-1,3.292999864E-1
1.707329687E0,2.072999924E-1,1.867999882E-1,3.386999965E-1
1.717256250E0,3.044999838E-1,1.645999998E-1,2.985999882E-1
1.727182812E0,2.000999898E-1,1.283999979E-1,3.148999810E-1
1.737107812E0,2.054999918E-1,2.654999793E-1,4.737999737E-1
1.747034375E0,1.937000006E-1,3.096999824E-1,5.072000027E-1
1.756960937E0,1.721999943E-1,3.167999983E-1,4.420999885E-1
1.766887500E0,2.074999958E-1,2.854999900E-1,2.689999938E-1
1.776814062E0,2.094999999E-1,2.133999914E-1,-1.370999962E-1
1.786739062E0,1.216999963E-1,2.442999929E-1,-2.412999868E-1
1.796665625E0,7.099999487E-2,2.254000008E-1,-2.712999880E-1
1.806592187E0,-1.330000013E-1,3.050000072E-1,-2.290999889E-1
1.816518750E0,-1.336999983E-1,2.443999946E-1,-1.944999993E-1
1.826443750E0,3.469999880E-2,2.484999895E-1,-2.556999922E-1
1.836370312E0,-1.127000004E-1,3.018999994E-1,-1.942999959E-1
1.846296875E0,-5.439999700E-2,2.633000016E-1,1.139999926E-2
1.856223437E0,-6.809999794E-2,3.082999885E-1,1.075999960E-1
1.866150000E0,-1.428000033E-1,2.953000069E-1,1.048000008E-1
1.876076562E0,-1.031999961E-1,2.920999825E-1,1.209999993E-2
1.886003125E0,4.589999840E-2,3.237999976E-1,2.769999951E-2
1.895929687E0,9.739999473E-2,3.136999905E-1,-8.499999531E-3
1.905856250E0,1.068999991E-1,2.434999943E-1,-3.399999812E-2
1.915781250E0,1.768999994E-1,2.545000017E-1,-1.159999985E-2
1.925707812E0,2.140999883E-1,2.206999958E-1,1.879999973E-2
1.935634375E0,1.111999974E-1,2.663999796E-1,2.113000005E-1
1.945560937E0,6.839999557E-2,3.712999821E-1,1.882999986E-1
1.955485937E0,8.419999480E-2,2.700999975E-1,3.289999813E-2
1.965412500E0,-3.009999916E-2,3.242000043E-1,8.460000157E-2
1.975339062E0,-1.232999936E-1,2.664999962E-1,6.700000167E-2
1.985265625E0,-8.039999753E-2,3.524000049E-1,5.639999732E-2
1.995192187E0,-1.201999933E-1,3.209999800E-1,1.200999990E-1
2.005118750E0,-7.310000062E-2,2.814999819E-1,8.229999989E-2
2.015045312E0,-1.225999966E-1,3.010999858E-1,1.340000033E-1
2.024970312E0,-9.589999914E-2,3.213999867E-1,9.699999541E-2
2.034896875E0,6.699999794E-3,3.319999874E-1,2.679999918E-2
2.044823437E0,-9.459999949E-2,3.567000031E-1,-9.709999710E-2
2.054750000E0,-4.429999739E-2,3.893999755E-1,-1.516000032E-1
2.064676562E0,-4.270000011E-2,3.877999783E-1,-2.658999860E-1
2.074603125E0,-4.899999872E-2,4.066999853E-1,-1.820999980E-1
2.084529687E0,9.019999951E-2,4.147999883E-1,-2.624999881E-1
2.094454687E0,1.843999922E-1,4.060999751E-1,-3.461000025E-1
2.104381250E0,7.209999859E-2,4.386000037E-1,-2.766999900E-1
2.114307812E0,6.039999798E-2,4.569999874E-1,2.749999985E-2
2.124234375E0,1.579999924E-1,4.197999835E-1,1.854999959E-1
2.134160937E0,1.288999915E-1,3.953999877E-1,4.041999876E-1
2.144087500E0,2.101999968E-1,4.348999858E-1,4.684999883E-1
2.154014062E0,1.783999950E-1,4.037999809E-1,4.366999865E-1
2.163939062E0,1.341999918E-1,3.655000031E-1,3.870999813E-1
2.173865625E0,3.729999810E-2,3.851999938E-1,2.983999848E-1
2.183792187E0,1.249999925E-2,3.639999926E-1,2.723999918E-1
2.193718750E0,-4.999999888E-3,3.540000021E-1,9.009999782E-2
2.203645312E0,-1.929999888E-2,3.617999852E-1,-1.583999991E-1
2.213571875E0,-6.279999763E-2,2.540000081E-1,-2.322999984E-1
2.223498437E0,-1.042999998E-1,2.660000026E-1,-3.766999841E-1
2.233423437E0,-2.330999970E-1,2.131000012E-1,-3.531999886E-1
2.243350000E0,-1.745999902E-1,1.823000014E-1,-3.357999921E-1
2.253276562E0,-1.573999971E-1,7.840000093E-2,-3.035999835E-1
2.263203125E0,-1.323999912E-1,7.609999925E-2,-2.527000010E-1
2.273129687E0,-3.249999881E-2,1.129999943E-2,-9.070000052E-2
2.283056250E0,1.136000007E-1,8.799999952E-3,-1.041999981E-1
2.292982812E0,1.928000003E-1,-4.989999905E-2,-2.889999934E-2
2.302907812E0,1.253999919E-1,-4.869999737E-2,-3.920000046E-2
2.312834375E0,2.058999985E-1,-1.322999895E-1,6.179999933E-2
2.322760937E0,2.358999997E-1,-8.619999886E-2,9.869999439E-2
2.332687500E0,2.845000029E-1,-8.100000210E-3,1.533999890E-1
2.342614062E0,2.313999981E-1,6.279999763E-2,3.735999763E-1
2.352540625E0,1.808999926E-1,6.019999832E-2,2.924999893E-1
2.362465625E0,2.635000050E-1,2.879999951E-2,9.290000051E-2
2.372392187E0,1.941999942E-1,9.609999508E-2,1.393999904E-1
2.382318750E0,9.429999441E-2,5.309999734E-2,1.608999968E-1
2.392245312E0,5.709999800E-2,6.489999592E-2,1.590999961E-1
2.402171875E0,-3.849999979E-2,1.708000004E-1,1.433999985E-1
2.412098437E0,-2.148000002E-1,1.208999977E-1,8.209999651E-2
2.422023437E0,-2.362999916E-1,2.025000006E-1,3.249999881E-2
2.431950000E0,-3.278999925E-1,3.071999848E-1,2.099999972E-2
2.441876562E0,-3.351999819E-1,2.909999788E-1,-4.699999932E-3
2.451803125E0,-3.014999926E-1,3.249000013E-1,-4.100000020E-3
2.461729687E0,-2.549000084E-1,3.621000051E-1,-2.119999938E-2
2.471656250E0,-1.803999990E-1,3.559999764E-1,1.083000004E-1
2.481582812E0,-2.243999988E-1,4.405999780E-1,1.080999970E-1
2.491507812E0,-1.658999920E-1,5.069999695E-1,5.460000038E-2
2.501434375E0,-8.779999614E-2,4.475999773E-1,3.830000013E-2
2.511360937E0,5.639999732E-2,4.657999873E-1,-7.939999551E-2
2.521287500E0,1.983999908E-1,4.329999983E-1,-4.419999942E-2
2.531214062E0,3.181000054E-1,4.314000010E-1,6.999999750E-3
2.541140625E0,3.750999868E-1,4.820999801E-1,2.929999866E-2
2.551067187E0,3.664000034E-1,4.149999917E-1,-1.089999974E-1
2.560992187E0,2.800000012E-1,3.807999790E-1,-1.079999954E-1
2.570918750E0,2.201999873E-1,3.504999876E-1,7.509999722E-2
2.580845312E0,1.058999971E-1,2.815999985E-1,2.427999973E-1
2.590770312E0,-2.319999970E-2,3.181999922E-1,2.927999794E-1
2.600698437E0,-1.435000002E-1,3.017999828E-1,4.926999807E-1
2.610625000E0,-1.193000004E-1,3.507999778E-1,4.922999740E-1
2.620550000E0,-1.806999892E-1,3.827999830E-1,2.433999926E-1
2.630476562E0,-2.273999900E-1,3.568999767E-1,2.960000001E-2
2.640403125E0,-2.239999920E-1,3.610999882E-1,-2.513999939E-1
2.650328125E0,-2.680999935E-1,3.388999999E-1,-4.208000004E-1
2.660256250E0,-2.768000066E-1,4.933999777E-1,-4.864999950E-1
2.670182812E0,-3.252999783E-1,3.874999881E-1,-4.819999933E-1
2.680109375E0,-2.236000001E-1,3.966999948E-1,-4.032000005E-1
2.690034375E0,-1.709000021E-1,4.245999753E-1,-2.913999856E-1
2.699960937E0,-1.612999886E-1,3.615999818E-1,-1.074999943E-1
2.709887500E0,-1.068999991E-1,3.522000015E-1,1.234999970E-1
2.719814062E0,8.299999870E-3,2.946999967E-1,2.437999994E-1
2.729740625E0,1.325999945E-1,3.362999856E-1,2.500999868E-1
2.739667187E0,3.143999875E-1,2.698999941E-1,1.596999913E-1
2.749592187E0,2.393999994E-1,2.153999954E-1,1.811999977E-1
2.759518750E0,3.300999999E-1,2.110999972E-1,2.057999969E-1
2.769443750E0,3.538999856E-1,1.779000014E-1,1.174999997E-1
2.779371875E0,2.167999893E-1,1.165999994E-1,7.999999821E-2
2.789298437E0,1.923999935E-1,1.185999960E-1,2.149999887E-1
2.799225000E0,2.039999962E-1,1.331000030E-1,2.370999902E-1
2.809151562E0,8.519999683E-2,1.585000008E-1,3.560999930E-1
2.819078125E0,2.105000019E-1,1.781999916E-1,3.080999851E-1
2.829003125E0,2.910999954E-1,2.287999988E-1,9.979999810E-2
2.838929687E0,2.404999882E-1,2.680999935E-1,-1.535999924E-1
2.848856250E0,4.030000046E-2,2.554999888E-1,-3.085999787E-1
2.858782812E0,-1.230999976E-1,2.992999852E-1,-4.113000035E-1
2.868707812E0,-2.698000073E-1,2.745999992E-1,-3.809999824E-1
2.878634375E0,-2.698999941E-1,3.373999894E-1,-2.769999802E-1
2.888560937E0,-1.287999898E-1,3.199999928E-1,-9.510000050E-2
2.898487500E0,-6.359999627E-2,2.796999812E-1,-2.019999921E-2
2.908414062E0,-1.318999976E-1,3.220999837E-1,5.619999766E-2
2.918340625E0,-2.151999921E-1,3.793999851E-1,2.358999997E-1
2.928265625E0,-2.642999887E-1,4.028999805E-1,4.041000009E-1
2.938192187E0,-1.622999907E-1,4.998999834E-1,4.995999932E-1
2.948120312E0,-1.119999960E-2,4.772000015E-1,5.243999958E-1
2.958045312E0,7.829999924E-2,4.901999831E-1,4.393999875E-1
2.967971875E0,2.119999975E-1,4.993999898E-1,1.836999953E-1
2.977898437E0,2.399999946E-1,4.966000021E-1,-1.166999936E-1
2.987825000E0,2.877999842E-1,4.165999889E-1,-2.466999888E-1
2.997751562E0,2.484999895E-1,3.976999819E-1,-2.717999816E-1
3.007678125E0,2.063999921E-1,3.594999909E-1,-1.307999939E-1
3.017603125E0,1.422999948E-1,3.041999936E-1,-5.549999699E-2
3.027529687E0,7.840000093E-2,2.273999900E-1,1.010999978E-1
3.037456250E0,1.519999932E-2,2.992999852E-1,1.568000019E-1
3.047382812E0,-9.039999545E-2,2.757000029E-1,2.215999961E-1
3.057307812E0,-1.677999943E-1,2.588999867E-1,1.544999927E-1
3.067234375E0,-1.450999975E-1,2.396999896E-1,-3.000000026E-3
3.077160937E0,-3.346000016E-1,2.906000018E-1,-8.709999919E-2
3.087087500E0,-2.897000015E-1,2.987000048E-1,-1.894999892E-1
3.097014062E0,-2.264999896E-1,2.908000052E-1,-3.407000005E-1
3.106939062E0,-2.078000009E-1,3.404999971E-1,-4.307999909E-1
3.116865625E0,-1.462000012E-1,3.174999952E-1,-3.024999797E-1
3.126792187E0,-1.502999961E-1,2.692999840E-1,-1.948999912E-1
3.136718750E0,-9.329999983E-2,3.427999914E-1,-4.429999739E-2
3.146645312E0,-3.209999949E-2,3.599999845E-1,-5.759999901E-2
3.156571875E0,-5.709999800E-2,4.290999770E-1,5.289999768E-2
3.166498437E0,1.260000002E-2,3.912999928E-1,1.763999909E-1
3.176423437E0,3.189999983E-2,4.629999995E-1,2.949000001E-1
3.186350000E0,6.169999763E-2,4.377000034E-1,2.958000004E-1
3.196276562E0,1.098999977E-1,4.057999849E-1,2.865000069E-1
3.206203125E0,1.955000013E-1,3.856000006E-1,2.821999788E-1
3.216129687E0,2.462999970E-1,3.062999845E-1,1.873999983E-1
3.226056250E0,2.045999914E-1,2.639999986E-1,9.399999678E-2
3.235982812E0,1.067999974E-1,2.604999840E-1,5.480000004E-2
3.245907812E0,1.933999956E-1,2.225999981E-1,-1.301999986E-1
3.255834375E0,2.180999964E-1,2.107999921E-1,-1.652999967E-1
3.265760937E0,1.124999970E-1,2.154999971E-1,-2.028999925E-1
3.275687500E0,1.366000026E-1,1.920000017E-1,-1.591999978E-1
3.285614062E0,1.155999973E-1,1.592999995E-1,-1.532000005E-1
3.295540625E0,1.649999991E-2,1.056999937E-1,-2.212999910E-1
3.305467187E0,9.499999695E-3,1.198999956E-1,-2.495999932E-1
3.315392187E0,-1.469999924E-2,1.278999895E-1,-5.309999734E-2
3.325318750E0,-1.143999994E-1,8.590000123E-2,1.083999947E-1
3.335245312E0,-1.052999943E-1,1.425999999E-1,2.164999992E-1
3.345171875E0,-3.130000085E-2,6.610000134E-2,2.504000068E-1
3.355098437E0,-1.631999910E-1,1.181999967E-1,2.047999948E-1
3.365025000E0,-1.796000004E-1,1.587999910E-1,7.869999856E-2
3.374951562E0,-2.013999969E-1,1.802999973E-1,9.269999713E-2
3.384876562E0,-1.881999969E-1,2.800999880E-1,1.093999967E-1
3.394803125E0,-4.939999804E-2,3.317999840E-1,1.756999940E-1
3.404729687E0,7.199999876E-3,3.752000034E-1,2.013999969E-1
3.414656250E0,9.099999443E-3,3.906999826E-1,1.393000036E-1
3.424582812E0,3.500000015E-2,3.303000033E-1,2.258999944E-1
3.434509375E0,3.439999744E-2,5.040999651E-1,1.530999988E-1
3.444434375E0,8.869999647E-2,4.615999758E-1,1.583999991E-1
3.454360937E0,1.079999954E-1,4.845999777E-1,5.590000004E-2
3.464287500E0,1.301999986E-1,5.142999887E-1,-9.489999712E-2
3.474214062E0,3.379999846E-2,4.309999943E-1,-9.759999812E-2
3.484140625E0,2.559999935E-2,5.548999906E-1,-3.009999916E-2
3.494067187E0,1.083000004E-1,5.629000068E-1,1.235999987E-1
3.503993750E0,7.509999722E-2,6.019999981E-1,1.513999999E-1
3.513918750E0,5.639999732E-2,5.382999778E-1,2.078999877E-1
3.523845312E0,3.199999919E-3,5.352999568E-1,1.826999933E-1
3.533771875E0,-7.919999957E-2,5.533999801E-1,2.108999938E-1
3.543698437E0,-1.149999946E-1,5.679000020E-1,1.727000028E-1
3.553625000E0,-4.289999977E-2,5.157999992E-1,1.737999916E-1
3.563551562E0,-1.950000040E-2,5.266000032E-1,3.249999881E-2
3.573476562E0,9.299999475E-2,3.930999935E-1,-2.180999964E-1
3.583403125E0,1.518999934E-1,3.499999940E-1,-3.797000051E-1
3.593329687E0,4.339999706E-2,2.770999968E-1,-3.283999860E-1
3.603256250E0,-2.799999900E-3,2.703999877E-1,-3.030999899E-1
3.613181250E0,-8.519999683E-2,2.082999945E-1,-2.016000003E-1
3.623109375E0,-9.839999676E-2,2.504000068E-1,-1.519999932E-2
3.633035937E0,-1.559999958E-2,1.869999915E-1,-7.509999722E-2
3.642962500E0,-1.279999968E-2,1.260000020E-1,3.070000000E-2
3.652887500E0,-1.536999941E-1,1.048000008E-1,-1.019999944E-2
3.662814062E0,-1.053999960E-1,1.463000029E-1,1.842999905E-1
3.672740625E0,-1.062999964E-1,1.207999960E-1,3.016999960E-1
3.682667187E0,1.289999951E-2,1.961999983E-1,2.427999973E-1
3.692593750E0,5.570000038E-2,1.358999908E-1,2.389999926E-1
3.702520312E0,1.349000037E-1,1.634999961E-1,1.809999906E-2
3.712446875E0,7.459999621E-2,1.674000025E-1,-1.819999889E-2
3.722371875E0,5.989999697E-2,2.054999918E-1,-8.810000122E-2
3.732298437E0,1.759999990E-2,3.321999907E-1,1.999999862E-3
3.742225000E0,1.469999924E-2,2.815999985E-1,7.270000130E-2
3.752151562E0,-3.969999775E-2,3.416000009E-1,1.158000007E-1
3.762078125E0,-6.300000101E-2,3.536999822E-1,1.479000002E-1
3.772004687E0,-4.140000045E-2,3.858000040E-1,4.879999906E-2
3.781929687E0,-3.209999949E-2,3.969999850E-1,2.329999954E-2
3.791856250E0,5.419999734E-2,4.169999957E-1,1.829999872E-2
3.801782812E0,8.789999783E-2,2.872999907E-1,-6.629999727E-2
3.811709375E0,1.044999957E-1,2.745999992E-1,-3.209999949E-2
3.821635937E0,1.270000041E-1,2.281999886E-1,1.379999965E-1
3.831562500E0,1.975999922E-1,2.892999947E-1,5.769999698E-2
3.841489062E0,2.303999960E-1,2.611999810E-1,-2.410000004E-2
3.851414062E0,2.105000019E-1,2.049999982E-1,-9.849999845E-2
3.861340625E0,2.410999984E-1,1.217999980E-1,-6.219999865E-2
3.871267187E0,2.285999954E-1,2.556999922E-1,1.422999948E-1
3.881193750E0,1.697999984E-1,2.396999896E-1,3.790999949E-1
3.891120312E0,-1.249999925E-2,2.778999805E-1,5.311999917E-1
3.901046875E0,-8.049999923E-2,2.997999787E-1,4.136999846E-1
3.910973437E0,-1.492999941E-1,2.876999974E-1,1.916999966E-1
3.920898437E0,-1.251000017E-1,3.364999890E-1,1.970000006E-2
3.930825000E0,-1.354999989E-1,3.515999913E-1,-1.181999967E-1
3.940751562E0,-1.010999978E-1,3.416999876E-1,-3.118000031E-1
3.950678125E0,-8.869999647E-2,2.788999975E-1,-3.373000026E-1
3.960604687E0,-8.659999818E-2,3.154999912E-1,-3.111000061E-1
3.970531250E0,-1.159999985E-2,2.940999866E-1,-3.470000029E-1
3.980456250E0,-2.669999935E-2,2.423999906E-1,-4.969999939E-2
3.990382812E0,2.339999937E-2,2.085999995E-1,9.299999475E-2
4.000309375E0,2.549999952E-2,2.387999892E-1,2.014999986E-1
4.010235937E0,6.509999931E-2,2.281999886E-1,4.035999775E-1
4.020162500E0,-1.199999941E-3,2.719999850E-1,3.100999892E-1
4.030089062E0,1.719999872E-2,2.590999901E-1,3.290999830E-1
4.040015625E0,6.399999838E-3,2.936999798E-1,2.036999911E-1
4.049940625E0,5.999999866E-2,2.592000067E-1,1.250000000E-1
4.059865625E0,-5.449999869E-2,2.699999809E-1,-3.570000082E-2
4.069792187E0,-9.290000051E-2,2.807999849E-1,-2.944999933E-1
4.079720312E0,-8.299999684E-2,2.152999938E-1,-3.285999894E-1
4.089646875E0,-3.179999813E-2,1.873999983E-1,-3.439999819E-1
4.099571875E0,-3.529999778E-2,1.885999888E-1,-2.435999960E-1
4.109498437E0,-7.999999798E-4,1.938000023E-1,-2.066999972E-1
4.119425000E0,8.889999986E-2,1.172999963E-1,-1.850999892E-1
4.129351562E0,1.625999957E-1,2.310999930E-1,-7.769999653E-2
4.139276562E0,2.421999872E-1,1.351999938E-1,1.261000037E-1
4.149203125E0,1.728999913E-1,1.313000023E-1,2.559999824E-1
4.159129687E0,1.289999932E-1,1.332999915E-1,3.693999946E-1
4.169056250E0,1.409999933E-2,2.272999883E-1,3.944000006E-1
4.178982812E0,5.799999926E-3,2.572000027E-1,3.819999993E-1
4.188909375E0,7.799999788E-3,2.742999792E-1,2.752999961E-1
4.198835937E0,-1.119999960E-2,3.463999927E-1,1.402999908E-1
4.208760937E0,4.499999806E-2,3.102000058E-1,-9.070000052E-2
4.218687500E0,2.169999853E-2,3.152000010E-1,-2.110999972E-1
4.228614062E0,4.479999840E-2,2.836999893E-1,-2.545999885E-1
4.238540625E0,-1.599999890E-2,3.391999900E-1,-1.595000029E-1
4.248467187E0,4.089999944E-2,3.394999802E-1,-3.729999810E-2
4.258392187E0,5.590000004E-2,3.750999868E-1,8.879999816E-2
4.268320312E0,1.659999974E-2,4.147999883E-1,1.525999904E-1
4.278245312E0,-8.599999361E-3,4.555999935E-1,9.889999777E-2
4.288171875E0,8.540000021E-2,3.822000027E-1,8.609999716E-2
4.298098437E0,4.270000011E-2,3.561999798E-1,6.639999896E-2
4.308025000E0,5.109999701E-2,4.083999991E-1,1.173999980E-1
4.317951562E0,4.849999771E-2,3.325999975E-1,9.250000119E-2
4.327878125E0,-3.000000026E-3,3.673000038E-1,1.430999935E-1
4.337804687E0,-1.579999924E-2,3.506999910E-1,1.180999950E-1
4.347731250E0,-4.669999704E-2,2.964999974E-1,1.401000023E-1
4.357656250E0,-6.650000066E-2,3.441999853E-1,-1.090000011E-2
4.367584375E0,-9.079999477E-2,2.620999813E-1,-7.249999791E-2
4.377509375E0,-1.011999995E-1,3.050999939E-1,-5.599999800E-2
4.387435937E0,-3.480000049E-2,2.759999931E-1,-1.702999920E-1
4.397362500E0,-6.199999899E-2,2.653999925E-1,-8.549999446E-2
4.407287500E0,-3.849999979E-2,2.188999951E-1,-7.979999483E-2
4.417214062E0,-1.832999885E-1,2.584999800E-1,-1.385999918E-1
4.427140625E0,-1.653999984E-1,2.608999908E-1,-4.079999775E-2
4.437067187E0,-9.420000017E-2,2.773000002E-1,1.599999890E-2
4.446993750E0,-9.369999915E-2,2.551999986E-1,5.889999866E-2
4.456920312E0,-5.189999938E-2,2.557999790E-1,1.506000012E-1
4.466845312E0,-3.869999945E-2,2.787999809E-1,1.015999988E-1
4.476771875E0,-7.599999662E-3,2.836000025E-1,1.489000022E-1
4.486698437E0,6.879999489E-2,2.404999882E-1,1.599999964E-1
4.496625000E0,1.265999973E-1,2.629999816E-1,-1.899999916E-3
4.506551562E0,1.631999910E-1,2.443999946E-1,-1.409999933E-2
4.516478125E0,1.808999926E-1,2.953999937E-1,-9.800000116E-3
4.526403125E0,1.223999932E-1,3.559999764E-1,6.009999663E-2
4.536329687E0,3.009999916E-2,3.443000019E-1,1.209999993E-2
4.546256250E0,-1.899999939E-2,4.057999849E-1,1.119999960E-1
4.556182812E0,-7.660000026E-2,4.675999880E-1,1.494999975E-1
4.566109375E0,-1.755999923E-1,4.906999767E-1,1.992999911E-1
4.576035937E0,-1.327999979E-1,4.365999997E-1,2.333000004E-1
4.585962500E0,-1.510999948E-1,4.833999872E-1,1.816999912E-1
4.595887500E0,-8.739999682E-2,4.357999861E-1,-1.299999934E-2
4.605814062E0,2.499999944E-3,3.558000028E-1,-1.013000011E-1
4.615740625E0,3.739999980E-2,3.197999895E-1,-1.775999963E-1
4.625667187E0,1.419000030E-1,2.513999939E-1,-1.645999998E-1
4.635593750E0,1.093999967E-1,2.192000002E-1,-2.221999913E-1
4.645520312E0,5.889999866E-2,2.201999873E-1,-1.665000021E-1
4.655446875E0,3.570000082E-2,2.047999948E-1,-4.899999872E-2
4.665371875E0,1.630000025E-2,1.820999980E-1,-4.900000058E-3
4.675298437E0,-8.989999443E-2,2.500999868E-1,1.542999893E-1
4.685225000E0,4.399999976E-3,2.822999954E-1,1.389999986E-1
4.695151562E0,-7.039999962E-2,2.371999919E-1,1.191999987E-1
4.705078125E0,-3.729999810E-2,3.085999787E-1,6.529999524E-2
4.715004687E0,-6.740000099E-2,3.419999778E-1,8.749999851E-2
4.724931250E0,-8.549999446E-2,3.438999951E-1,8.599999547E-2
4.734856250E0,-7.119999826E-2,2.879000008E-1,1.144999936E-1
4.744782812E0,-1.480000000E-2,3.858000040E-1,-2.300000051E-3
4.754709375E0,2.779999934E-2,2.782000005E-1,-2.449999936E-2
4.764635937E0,-4.329999909E-2,2.575999796E-1,-1.499999966E-2
4.774562500E0,-4.959999770E-2,3.438999951E-1,-1.579999924E-2
4.784489062E0,-1.040000003E-2,3.313999772E-1,3.099999949E-2
4.794415625E0,-4.230000079E-2,3.707000017E-1,5.040000007E-2
4.804340625E0,1.189999934E-2,3.712999821E-1,6.439999491E-2
4.814267187E0,3.370000049E-2,3.695999980E-1,-3.599999845E-2
4.824193750E0,7.769999653E-2,4.077000022E-1,-1.559999958E-2
4.834120312E0,8.439999819E-2,4.055999815E-1,-3.280000016E-2
4.844046875E0,1.631999910E-1,3.563999832E-1,7.859999686E-2
4.853973437E0,2.784000039E-1,3.185999990E-1,1.328999996E-1
4.863898437E0,2.488999963E-1,3.630999923E-1,1.384000033E-1
4.873825000E0,1.718000025E-1,3.804999888E-1,1.775999963E-1
4.883751562E0,1.460999995E-1,3.809999824E-1,1.447999924E-1
4.893678125E0,1.255999953E-1,3.504000008E-1,1.112999991E-1
4.903604687E0,3.849999979E-2,3.194999993E-1,1.900999993E-1
4.913531250E0,-2.419999987E-2,3.467999995E-1,1.782999933E-1
4.923457812E0,-2.089999914E-1,3.208000064E-1,1.248999983E-1
4.933382812E0,-2.578999996E-1,3.095999956E-1,-6.999999750E-4
4.943309375E0,-3.570999801E-1,3.429999948E-1,-1.022999957E-1
4.953235937E0,-2.635000050E-1,3.522999883E-1,-1.633999944E-1
4.963162500E0,-1.498999894E-1,3.215000033E-1,-1.693999916E-1
4.973089062E0,-6.209999695E-2,2.507999837E-1,-2.001999915E-1
4.983015625E0,3.079999983E-2,2.008999884E-1,-2.175000012E-1
4.992942187E0,1.079999954E-1,2.040999979E-1,-4.899999872E-2
5.002867187E0,1.661999971E-1,2.090999931E-1,-2.489999868E-2
5.012793750E0,2.247999907E-1,2.143999934E-1,-8.249999583E-2
5.022720312E0,1.792999953E-1,1.546999961E-1,-9.599999525E-3
5.032646875E0,1.201999933E-1,1.986999959E-1,1.720999926E-1
5.042573437E0,1.158999950E-1,2.034999877E-1,1.947999895E-1
5.052500000E0,2.449999936E-2,1.885999888E-1,1.445999891E-1
5.062426562E0,-6.149999797E-2,2.421000004E-1,3.439999744E-2
5.072351562E0,-5.159999803E-2,2.065999955E-1,9.999999311E-4
5.082278125E0,-4.609999806E-2,2.071999907E-1,4.820000008E-2
5.092204687E0,-4.879999906E-2,2.162999958E-1,6.390000135E-2
5.102131250E0,-1.005999967E-1,2.471999973E-1,1.538999975E-1
5.112057812E0,-1.740999967E-1,3.267000020E-1,4.429999739E-2
5.121984375E0,-2.305999994E-1,4.068000019E-1,6.689999998E-2
5.131909375E0,-1.682000011E-1,3.990999758E-1,9.139999747E-2
5.141835937E0,-6.279999763E-2,3.808999956E-1,3.070000000E-2
5.151760937E0,7.899999619E-3,4.174999893E-1,-2.979999967E-2
5.161689062E0,4.839999974E-2,4.461999834E-1,-1.200000010E-2
5.171614062E0,6.509999931E-2,4.061999917E-1,4.250000045E-2
5.181542187E0,1.020999998E-1,4.168999791E-1,1.689999998E-1
5.191467187E0,8.399999887E-2,3.527999818E-1,2.432999909E-1
5.201393750E0,1.391000003E-1,3.084999919E-1,9.380000085E-2
5.211320312E0,1.469999999E-1,2.145999968E-1,3.599999938E-3
5.221246875E0,1.092999950E-1,2.754999995E-1,-5.609999970E-2
5.231171875E0,1.140000001E-1,2.049999982E-1,-8.980000019E-2
5.241100000E0,7.930000126E-2,2.184000015E-1,-1.110999957E-1
5.251026562E0,5.389999971E-2,2.116999924E-1,-1.741999984E-1
5.260951562E0,4.820000008E-2,1.758999974E-1,-1.493999958E-1
5.270878125E0,-4.900000058E-3,1.999999881E-1,-8.540000021E-2
5.280804687E0,-1.092000008E-1,2.071999907E-1,1.026999950E-1
5.290729687E0,-9.769999981E-2,2.568999827E-1,2.100999951E-1
5.300657812E0,-1.351999938E-1,3.587999940E-1,2.204999924E-1
5.310582812E0,-8.850000054E-2,3.865000010E-1,2.730000019E-1
5.320510937E0,-8.779999614E-2,3.762999773E-1,1.862999946E-1
5.330435937E0,-6.899999827E-2,4.523999989E-1,1.476999968E-1
5.340362500E0,-2.699999884E-2,3.793999851E-1,1.013999954E-1
5.350289062E0,-5.150000006E-2,4.404999912E-1,3.700000001E-3
5.360215625E0,-7.649999857E-2,4.105999768E-1,2.699999884E-2
5.370142187E0,-9.359999746E-2,4.166999757E-1,-7.000000030E-2
5.380068750E0,-2.569999918E-2,4.421999753E-1,-2.709999867E-2
5.389993750E0,8.209999651E-2,3.608999848E-1,4.580000043E-2
5.399920312E0,1.439999938E-1,3.375000060E-1,-5.009999871E-2
5.409846875E0,9.839999676E-2,2.822999954E-1,-1.023999974E-1
5.419771875E0,1.713999957E-1,2.599000037E-1,-6.350000203E-2
5.429700000E0,1.457999945E-1,2.365999967E-1,-9.659999609E-2
5.439626562E0,2.340999991E-1,2.161999941E-1,8.630000055E-2
5.449553125E0,9.969999641E-2,2.195999920E-1,1.752000004E-1
5.459478125E0,-1.260000002E-2,2.787999809E-1,3.272999823E-1
5.469404687E0,-1.063999981E-1,3.143000007E-1,1.439999938E-1
5.479331250E0,-1.076999977E-1,3.914999962E-1,1.149999946E-1
5.489256250E0,-1.503999978E-1,3.853999972E-1,6.749999523E-2
5.499182812E0,-1.067999974E-1,3.986999989E-1,8.879999816E-2
5.509109375E0,-1.284999996E-1,4.532999992E-1,2.469999902E-2
5.519035937E0,-2.000999898E-1,4.389999807E-1,-1.114000008E-1
5.528962500E0,-1.762000024E-1,4.314000010E-1,-1.765999943E-1
5.538889062E0,-1.239999980E-1,4.445999861E-1,-9.759999812E-2
5.548815625E0,6.099999696E-2,4.172999859E-1,-4.369999841E-2
5.558740625E0,8.020000160E-2,4.538999796E-1,1.396999955E-1
5.568667187E0,1.167999953E-1,4.276999831E-1,2.613999844E-1
5.578593750E0,1.290999949E-1,4.050000012E-1,2.254000008E-1
5.588520312E0,7.880000025E-2,3.826999962E-1,1.627999991E-1
5.598446875E0,1.990999877E-1,2.425999939E-1,2.979999967E-2
5.608373437E0,1.581999958E-1,2.366999984E-1,-4.299999680E-3
5.618300000E0,7.660000026E-2,2.113999873E-1,-1.969999969E-1
5.628226562E0,5.299999937E-2,1.647000015E-1,-1.938999891E-1
5.638151562E0,-1.209999993E-2,1.842999905E-1,-2.228999883E-1
5.648078125E0,-2.589999884E-2,2.725999951E-1,-1.657999903E-1
5.658004687E0,-8.549999446E-2,2.127999961E-1,-1.509999931E-1
5.667929687E0,-2.290000021E-2,2.085999995E-1,-1.439999975E-2
5.677856250E0,7.319999486E-2,1.472999901E-1,2.809999883E-2
5.687782812E0,1.363999993E-1,1.481999904E-1,8.309999853E-2
5.697709375E0,9.899999946E-2,1.215999946E-1,1.247999966E-1
5.707635937E0,-5.999999703E-4,1.484999955E-1,2.138999999E-1
5.717562500E0,-6.929999590E-2,1.476999968E-1,2.953000069E-1
5.727489062E0,-1.220999956E-1,2.255999893E-1,2.439999878E-1
5.737415625E0,-1.342999935E-1,2.529000044E-1,1.401000023E-1
5.747340625E0,-2.219999880E-1,2.665999830E-1,-1.659999974E-2
5.757267187E0,-1.232999936E-1,2.969000041E-1,-4.079999775E-2
5.767193750E0,-1.053999960E-1,3.091000021E-1,-1.868999898E-1
5.777120312E0,1.300000004E-3,3.009999990E-1,-1.429999918E-1
5.787046875E0,8.929999918E-2,2.802000046E-1,-2.403999865E-1
5.796973437E0,8.819999546E-2,2.735999823E-1,-8.139999956E-2
5.806900000E0,1.423999965E-1,2.890999913E-1,6.629999727E-2
5.816825000E0,6.529999524E-2,2.705999911E-1,1.546999961E-1
5.826751562E0,-4.999999655E-4,2.833999991E-1,2.107999921E-1
5.836678125E0,2.759999968E-2,3.014999926E-1,2.026999891E-1
5.846604687E0,2.829999849E-2,2.782000005E-1,8.529999852E-2
5.856531250E0,5.199999735E-2,2.822999954E-1,3.729999810E-2
5.866457812E0,1.275999993E-1,3.073999882E-1,1.296999902E-1
5.876384375E0,6.390000135E-2,2.820000052E-1,1.008999944E-1
5.886309375E0,7.599999662E-3,3.061999977E-1,1.825999916E-1
5.896235937E0,-1.310000010E-2,3.524000049E-1,1.765999943E-1
5.906162500E0,-1.850000024E-2,3.387999833E-1,7.169999927E-2
5.916089062E0,4.299999680E-3,3.064000010E-1,-1.238999963E-1
5.926015625E0,2.789999917E-2,3.253999949E-1,-3.119999915E-2
5.935940625E0,8.729999512E-2,3.125999868E-1,-1.289999951E-2
5.945868750E0,-4.999999888E-3,3.088999987E-1,4.729999974E-2
5.955793750E0,6.699999794E-3,3.149999976E-1,1.219999976E-2
5.965720312E0,-1.328999996E-1,3.893999755E-1,-1.358999908E-1
5.975646875E0,-2.604999840E-1,3.922999799E-1,-1.068999991E-1
5.985573437E0,-1.768999994E-1,3.867000043E-1,-3.629999980E-2
5.995500000E0,-1.500999928E-1,4.221999943E-1,7.469999790E-2
6.005425000E0,-2.133999914E-1,3.736999929E-1,1.803999990E-1
6.015351562E0,-7.660000026E-2,2.807999849E-1,1.490999907E-1
6.025278125E0,-2.269999869E-2,3.813000023E-1,2.799999900E-3
6.035204687E0,-6.000000052E-3,3.817999959E-1,-6.589999795E-2
6.045131250E0,1.854999959E-1,3.215000033E-1,-3.729999810E-2
6.055057812E0,1.271999925E-1,2.631999850E-1,-2.296999991E-1
6.064984375E0,1.053999960E-1,2.940999866E-1,-1.266999990E-1
6.074910937E0,1.309999973E-1,2.786999941E-1,-8.529999852E-2
6.084835937E0,5.819999799E-2,2.662000060E-1,1.779999956E-2
6.094762500E0,-4.169999808E-2,2.737999856E-1,1.048000008E-1
6.104689062E0,-3.999999724E-3,3.176999986E-1,2.236000001E-1
6.114615625E0,-1.750000007E-2,3.260999918E-1,3.434999883E-1
6.124542187E0,-4.360000044E-2,3.761999905E-1,3.006999791E-1
6.134468750E0,-2.269999869E-2,3.949999809E-1,1.479000002E-1
6.144393750E0,-5.240000039E-2,4.011999965E-1,-4.100000020E-3
6.154320312E0,-4.140000045E-2,4.148999751E-1,2.249999903E-2
6.164246875E0,-3.839999810E-2,3.660999835E-1,6.989999861E-2
6.174173437E0,6.300000008E-3,4.448999763E-1,1.457999945E-1
6.184100000E0,9.119999409E-2,3.585000038E-1,1.199999973E-1
6.194026562E0,3.879999742E-2,4.705999792E-1,9.600000083E-2
6.203953125E0,6.329999864E-2,3.750999868E-1,4.690000042E-2
6.213879687E0,-1.229999959E-2,3.851999938E-1,6.000000052E-3
6.223804687E0,-1.389999967E-2,4.104999900E-1,-6.929999590E-2
6.233731250E0,-6.969999522E-2,4.633999765E-1,-9.099999815E-2
6.243657812E0,-7.840000093E-2,3.317999840E-1,-7.699999958E-3
6.253584375E0,-2.449999936E-2,3.843999803E-1,-7.069999725E-2
6.263510937E0,-4.289999977E-2,3.683999777E-1,-7.149999589E-2
6.273435937E0,6.679999828E-2,3.240999877E-1,-9.079999477E-2
6.283362500E0,1.169999987E-1,2.992999852E-1,-1.272999942E-1
6.293289062E0,-2.779999934E-2,3.240999877E-1,2.999999851E-4
6.303215625E0,-6.000000052E-3,2.750000060E-1,1.281999946E-1
6.313142187E0,-2.909999900E-2,2.588999867E-1,2.278999984E-1
6.323068750E0,3.370000049E-2,2.538000047E-1,1.695999950E-1
6.332995312E0,9.860000014E-2,2.292999923E-1,3.269999847E-2
6.342921875E0,9.160000086E-2,2.022999972E-1,-5.749999732E-2
6.352846875E0,3.720000014E-2,2.311999947E-1,-6.089999899E-2
6.362773437E0,-1.079999954E-1,1.990000010E-1,-4.499999806E-3
6.372700000E0,-1.242999956E-1,2.065999955E-1,4.470000044E-2
6.382626562E0,-1.429999918E-1,2.250999957E-1,2.479999885E-2
6.392551562E0,-1.425999999E-1,2.642000020E-1,-1.300000004E-3
6.402479687E0,3.889999911E-2,2.453999966E-1,2.279999852E-2
6.412404687E0,9.969999641E-2,2.640999854E-1,-7.499999832E-3
6.422331250E0,8.449999988E-2,1.817999929E-1,-9.739999473E-2
6.432257812E0,7.149999589E-2,2.282999903E-1,-3.329999745E-2
6.442184375E0,1.438999921E-1,2.090999931E-1,7.959999889E-2
6.452110937E0,1.372999996E-1,2.199999988E-1,1.206999943E-1
6.462037500E0,7.919999957E-2,2.140000015E-1,1.836999953E-1
6.471964062E0,-3.729999810E-2,3.682999909E-1,1.837999970E-1
6.481889062E0,-1.074999943E-1,3.375000060E-1,1.847999990E-1
6.491815625E0,-1.120999977E-1,3.312999904E-1,5.130000040E-2
6.501742187E0,1.069999952E-2,3.330000043E-1,-1.439999975E-2
6.511668750E0,-7.799999788E-3,3.310000002E-1,-6.780000031E-2
6.521595312E0,2.719999850E-2,3.601999879E-1,6.099999696E-2
6.531521875E0,1.960000023E-2,3.477999866E-1,5.429999903E-2
6.541448437E0,-1.061000004E-1,3.770999908E-1,7.490000129E-2
6.551373437E0,-7.580000162E-2,3.283999860E-1,4.179999977E-2
6.561300000E0,-5.499999970E-2,3.763999939E-1,-7.710000128E-2
6.571226562E0,-7.599999756E-2,3.718999922E-1,-8.460000157E-2
6.581153125E0,-1.439999975E-2,3.287000060E-1,-6.509999931E-2
6.591079687E0,-7.999999798E-4,3.820999861E-1,-6.129999831E-2
6.601006250E0,3.460000083E-2,3.091999888E-1,1.399999950E-3
6.610931250E0,1.020999998E-1,2.870999873E-1,-1.269999985E-2
6.620857812E0,1.093999967E-1,2.884999812E-1,1.375999898E-1
6.630784375E0,1.799999923E-2,2.633999884E-1,2.206999958E-1
6.640710937E0,2.859999985E-2,3.115999997E-1,3.012000024E-1
6.650637500E0,4.729999974E-2,3.323999941E-1,2.838999927E-1
6.660564062E0,1.040000003E-2,3.335999846E-1,1.256999969E-1
6.670490625E0,4.399999976E-2,3.273999989E-1,-5.909999833E-2
6.680415625E0,1.719999872E-2,3.653999865E-1,-1.166999936E-1
6.690342187E0,-6.340000033E-2,3.385999799E-1,-1.388999969E-1
6.700268750E0,-3.849999979E-2,3.467999995E-1,-1.705999970E-1
6.710195312E0,-9.229999781E-2,3.657999933E-1,-1.344999969E-1
6.720121875E0,-9.959999472E-2,3.486000001E-1,-1.011999995E-1
6.730048437E0,-1.151999980E-1,3.933999836E-1,1.359999925E-2
6.739973437E0,-1.109999940E-1,3.938999772E-1,1.879999936E-1
6.749900000E0,6.879999489E-2,3.673000038E-1,1.684999913E-1
6.759826562E0,1.919999905E-2,4.217999876E-1,1.919000000E-1
6.769753125E0,1.141999960E-1,3.604999781E-1,1.682000011E-1
6.779678125E0,9.420000017E-2,3.966999948E-1,1.240999997E-1
6.789604687E0,1.262999922E-1,3.404999971E-1,6.079999730E-2
6.799532812E0,2.099999972E-2,3.428999782E-1,3.130000085E-2
6.809457812E0,4.789999872E-2,2.851999998E-1,2.410000004E-2
6.819384375E0,4.449999705E-2,2.346999943E-1,-2.089999989E-2
6.829310937E0,4.089999944E-2,2.320999950E-1,-3.570000082E-2
6.839237500E0,-4.179999977E-2,3.382999897E-1,1.659999974E-2
6.849162500E0,-5.189999938E-2,2.487999946E-1,1.799999923E-2
6.859089062E0,2.459999919E-2,2.777999938E-1,7.079999894E-2
6.869015625E0,-3.659999743E-2,2.476999909E-1,1.620000042E-2
6.878942187E0,-7.599999662E-3,2.502999902E-1,9.999999404E-2
6.888868750E0,7.999999449E-3,2.815999985E-1,7.379999757E-2
6.898795312E0,-2.919999883E-2,2.812999785E-1,-2.159999870E-2
6.908721875E0,-1.999999955E-2,2.289999872E-1,-8.269999921E-2
6.918646875E0,4.690000042E-2,2.361999899E-1,-9.759999812E-2
6.928575000E0,5.699999630E-3,2.608999908E-1,-4.389999807E-2
6.938500000E0,1.559999958E-2,3.068999946E-1,5.379999802E-2
6.948426562E0,1.589999907E-2,3.170000017E-1,1.195999980E-1
6.958353125E0,3.629999980E-2,3.304999769E-1,1.643999964E-1
6.968279687E0,-1.459999941E-2,3.448999822E-1,1.314000040E-1
6.978206250E0,-6.189999729E-2,3.470000029E-1,-5.099999718E-3
6.988132812E0,-6.439999491E-2,3.554999828E-1,-8.320000023E-2
6.998057812E0,-1.244999990E-1,4.012999833E-1,-7.499999553E-2
7.007984375E0,-7.119999826E-2,3.197999895E-1,2.139999904E-2
7.017910937E0,-2.309999987E-2,3.161999881E-1,2.719999850E-2
7.027837500E0,-1.087999940E-1,2.833999991E-1,-6.350000203E-2
7.037762500E0,-1.103999987E-1,3.316999972E-1,-1.129999943E-2
7.047689062E0,-1.131999940E-1,2.829999924E-1,1.979999989E-2
7.057615625E0,4.329999909E-2,3.134999871E-1,1.476999968E-1
7.067542187E0,1.275999993E-1,3.524000049E-1,6.209999695E-2
7.077468750E0,1.386999935E-1,2.838999927E-1,-2.389999852E-2
7.087395312E0,2.256999910E-1,2.714000046E-1,-1.121999994E-1
7.097320312E0,1.459999979E-1,2.008999884E-1,-5.559999868E-2
7.107246875E0,1.242999956E-1,2.389999926E-1,9.929999709E-2
7.117173437E0,8.639999479E-2,2.707000077E-1,1.710999906E-1
7.127100000E0,4.649999738E-2,2.487999946E-1,2.904999852E-1
7.137026562E0,4.539999738E-2,2.974999845E-1,1.958999932E-1
7.146953125E0,-5.209999904E-2,2.788999975E-1,1.911000013E-1
7.156878125E0,-4.199999943E-2,3.563999832E-1,1.571999937E-1
7.166804687E0,-9.950000048E-2,3.992999792E-1,6.199999712E-3
7.176731250E0,-9.089999646E-2,3.235999942E-1,-1.990999877E-1
7.186657812E0,-1.203999966E-1,3.736999929E-1,-2.222999930E-1
7.196584375E0,-9.300000034E-3,3.621000051E-1,-2.111999989E-1
7.206510937E0,-6.570000201E-2,4.296999872E-1,-8.829999715E-2
7.216437500E0,-4.899999872E-2,3.450999856E-1,5.359999835E-2
7.226364062E0,3.500000015E-2,3.736999929E-1,1.018999964E-1
7.236289062E0,1.579999924E-2,2.994000018E-1,2.343999892E-1
7.246215625E0,1.024999991E-1,3.358999789E-1,2.216999978E-1
7.256142187E0,-1.469999924E-2,3.642999828E-1,2.083999962E-1
7.266068750E0,-7.349999994E-2,4.415999949E-1,1.921999902E-1
7.275995312E0,-9.799999744E-2,4.284999967E-1,6.030000001E-2
7.285921875E0,-1.200000010E-2,4.013999999E-1,4.149999842E-2
7.295848437E0,8.549999446E-2,4.180999994E-1,-1.013999954E-1
7.305773437E0,5.839999765E-2,3.360999823E-1,-4.329999909E-2
7.315700000E0,5.539999902E-2,3.795000017E-1,-3.549999744E-2
7.325626562E0,7.400000002E-3,3.088999987E-1,5.119999871E-2
7.335553125E0,-4.539999738E-2,3.379999995E-1,1.420999914E-1
7.345479687E0,-3.209999949E-2,3.808999956E-1,1.292999983E-1
7.355404687E0,-4.639999941E-2,3.231999874E-1,3.150000051E-2
7.365332812E0,-3.700000001E-3,3.324999809E-1,-8.159999549E-2
7.375257812E0,9.259999543E-2,2.660000026E-1,-2.699999809E-1
7.385184375E0,1.189999953E-1,1.773999929E-1,-2.516999841E-1
7.395110937E0,-8.299999870E-3,2.272000015E-1,-1.184000000E-1
7.405037500E0,-3.159999847E-2,2.588000000E-1,-7.859999686E-2
7.414964062E0,-7.999999449E-3,1.106999964E-1,1.903999895E-1
7.424890625E0,-4.169999808E-2,1.732999980E-1,2.120999992E-1
7.434815625E0,-3.049999848E-2,2.087999880E-1,1.911999881E-1
7.444742187E0,4.019999877E-2,2.140000015E-1,8.850000054E-2
7.454668750E0,7.779999822E-2,1.997999996E-1,-2.309999987E-2
7.464595312E0,8.029999584E-2,2.465999871E-1,-1.175999939E-1
7.474521875E0,-3.309999779E-2,2.615999877E-1,-1.292999983E-1
7.484448437E0,-2.082999945E-1,3.067999780E-1,6.499999668E-3
7.494375000E0,-2.333999872E-1,3.361999989E-1,1.618999988E-1
7.504300000E0,-2.460999936E-1,3.393999934E-1,2.207999974E-1
7.514226562E0,-9.229999781E-2,3.559999764E-1,1.841999888E-1
7.524153125E0,3.469999880E-2,3.649999797E-1,1.484999955E-1
7.534079687E0,6.759999692E-2,3.809999824E-1,8.370000124E-2
7.544006250E0,1.015999988E-1,4.043000042E-1,1.061000004E-1
7.553931250E0,1.669999957E-2,3.549000025E-1,5.899999756E-3
7.563859375E0,1.286000013E-1,4.294999838E-1,-8.630000055E-2
7.573784375E0,1.604000032E-1,3.319999874E-1,-2.538999915E-1
7.583710937E0,1.093999967E-1,2.814999819E-1,-3.136000037E-1
7.593637500E0,1.168999970E-1,2.403999865E-1,-2.427999973E-1
7.603564062E0,8.729999512E-2,1.849000007E-1,-3.619999811E-2
7.613490625E0,1.099999994E-2,1.829999983E-1,1.793999970E-1
7.623415625E0,6.409999728E-2,1.365000010E-1,2.091999948E-1
7.633342187E0,7.059999555E-2,2.055999935E-1,3.937999904E-1
7.643267187E0,1.799999923E-2,2.090999931E-1,2.949999869E-1
7.653193750E0,-8.219999820E-2,1.835999936E-1,2.433999926E-1
7.663121875E0,3.629999980E-2,3.039000034E-1,1.920000017E-1
7.673048437E0,-4.580000043E-2,2.725999951E-1,5.999999703E-4
7.682975000E0,-6.229999661E-2,3.048000038E-1,-2.432999909E-1
7.692900000E0,-9.269999713E-2,3.145000041E-1,-2.561999857E-1
7.702826562E0,-2.190000005E-2,3.427999914E-1,-1.799999923E-1
7.712753125E0,4.619999975E-2,3.427999914E-1,-2.939999849E-2
7.722679687E0,3.839999810E-2,3.481999934E-1,1.336999983E-1
7.732606250E0,3.099999949E-2,3.328000009E-1,2.484999895E-1
7.742532812E0,1.055999994E-1,4.126999974E-1,3.811999857E-1
7.752457812E0,4.409999773E-2,4.077999890E-1,3.456999958E-1
7.762384375E0,2.329999954E-2,4.035999775E-1,2.569999993E-1
7.772310937E0,-1.002999991E-1,4.626999795E-1,7.499999553E-2
7.782237500E0,-1.423999965E-1,4.814999998E-1,-1.674999893E-1
7.792164062E0,-1.253999919E-1,5.281999707E-1,-2.804999948E-1
7.802090625E0,-5.289999768E-2,4.452999830E-1,-2.295999974E-1
7.812017187E0,1.209999993E-2,4.232999980E-1,-5.819999799E-2
7.821943750E0,1.164999977E-1,2.899000049E-1,1.241999939E-1
7.831868750E0,3.460000083E-2,3.177999854E-1,1.092000008E-1
7.841795312E0,1.370000001E-2,2.836000025E-1,1.715999991E-1
7.851721875E0,1.168999970E-1,2.386000007E-1,1.979999989E-2
7.861648437E0,3.089999966E-2,2.000999898E-1,-8.119999617E-2
7.871573437E0,7.419999689E-2,2.343999892E-1,-1.430999935E-1
7.881500000E0,9.239999950E-2,1.823000014E-1,-8.839999884E-2
7.891428125E0,1.304000020E-1,1.678999960E-1,-3.929999843E-2
7.901353125E0,1.385999918E-1,1.568999887E-1,5.279999971E-2
7.911279687E0,4.749999940E-2,2.192000002E-1,1.776999980E-1
7.921206250E0,-2.229999937E-2,2.274999917E-1,2.602999806E-1
7.931132812E0,-1.098999977E-1,2.759999931E-1,2.707999945E-1
7.941059375E0,-6.469999999E-2,2.478999943E-1,2.207999974E-1
7.950985937E0,-6.859999895E-2,3.650999963E-1,1.384000033E-1
7.960912500E0,-9.690000117E-2,3.911999762E-1,9.169999510E-2
7.970837500E0,-1.196999997E-1,4.382999837E-1,-6.859999895E-2
7.980764062E0,-1.547999978E-1,4.036999941E-1,-8.519999683E-2
7.990690625E0,-2.563999891E-1,4.240999818E-1,-1.294000000E-1
8.000617187E0,-1.160999984E-1,3.847999871E-1,-1.564999968E-1
8.010543750E0,-5.159999803E-2,3.662999868E-1,-5.839999765E-2
8.020468750E0,3.799999831E-3,4.023000002E-1,4.369999841E-2
8.030396875E0,1.416999996E-1,3.211999834E-1,6.689999998E-2
8.040321875E0,1.578999907E-1,2.841999829E-1,1.871999949E-1
8.050248437E0,1.877999902E-1,3.152999878E-1,2.199999988E-2
8.060175000E0,8.980000019E-2,2.574000061E-1,-2.499999851E-2
8.070101562E0,9.759999812E-2,2.766999900E-1,-3.599999845E-2
8.080028125E0,1.108999997E-1,2.861000001E-1,-2.549999952E-2
8.089954687E0,8.669999987E-2,2.922999859E-1,6.399999838E-3
8.099879687E0,8.549999446E-2,2.928999960E-1,6.679999828E-2
8.109806250E0,-2.339999937E-2,2.845000029E-1,7.759999484E-2
8.119732812E0,-8.399999887E-2,3.558000028E-1,1.294000000E-1
8.129659375E0,-1.176999956E-1,4.359999895E-1,9.640000015E-2
8.139584375E0,-7.949999720E-2,3.621999919E-1,1.568000019E-1
8.149512500E0,-3.899999894E-3,4.156000018E-1,1.536999941E-1
8.159439062E0,-8.299999870E-3,4.567999840E-1,3.689999878E-2
8.169364062E0,4.259999841E-2,4.366999865E-1,-8.599999361E-3
8.179290625E0,1.103999987E-1,3.795999885E-1,2.960000001E-2
8.189217187E0,1.595000029E-1,3.674999774E-1,-2.269999869E-2
8.199143750E0,2.445999980E-1,3.731999993E-1,-6.149999797E-2
8.209070312E0,2.215999961E-1,2.847000062E-1,-3.309999779E-2
8.218996875E0,9.200000018E-2,3.174999952E-1,9.019999951E-2
8.228921875E0,5.590000004E-2,2.827000022E-1,1.831000000E-1
8.238848437E0,-1.179999951E-2,3.366000056E-1,1.542999893E-1
8.248775000E0,-8.179999888E-2,2.940999866E-1,1.704999954E-1
8.258701562E0,-1.992999911E-1,3.355000019E-1,3.949999809E-2
8.268628125E0,-2.685999870E-1,3.844999969E-1,6.140000001E-2
8.278554687E0,-2.405999899E-1,3.522000015E-1,3.909999877E-2
8.288479687E0,-2.211999893E-1,3.387999833E-1,-2.840000018E-2
8.298406250E0,-4.169999808E-2,3.014999926E-1,-1.288999915E-1
8.308332812E0,2.749999985E-2,2.245999873E-1,-2.186999917E-1
8.318259375E0,1.329999976E-2,2.739999890E-1,-1.651999950E-1
8.328184375E0,2.909999900E-2,2.087000012E-1,-7.100000046E-3
8.338110937E0,-1.740000024E-2,3.224999905E-1,8.009999990E-2
8.348037500E0,-5.499999970E-2,3.014000058E-1,5.659999698E-2
8.357964062E0,-5.359999835E-2,2.633999884E-1,3.460000083E-2
8.367890625E0,1.689999923E-2,2.255999893E-1,-8.700000122E-3
8.377817187E0,3.049999848E-2,2.540999949E-1,-9.999999776E-3
8.387743750E0,-2.659999952E-2,2.439999878E-1,5.289999768E-2
8.397668750E0,-1.669999957E-2,2.175999880E-1,1.600999981E-1
8.407595312E0,-4.699999932E-3,2.083999962E-1,2.579999901E-2
8.417521875E0,4.829999804E-2,1.699000001E-1,-1.040000003E-2
8.427448437E0,2.879999951E-2,1.614999920E-1,-4.199999850E-3
8.437375000E0,1.808999926E-1,1.634999961E-1,6.509999931E-2
8.447300000E0,1.997999996E-1,1.807999909E-1,2.699999837E-3
8.457226562E0,1.498000026E-1,1.605999917E-1,-5.150000006E-2
8.467153125E0,9.979999810E-2,1.519999951E-1,-2.699999837E-3
8.477079687E0,-1.603000015E-1,2.576999962E-1,-7.589999586E-2
8.487006250E0,-1.979999989E-1,2.428999990E-1,-3.429999948E-2
8.496932812E0,-1.006999984E-1,2.491999865E-1,-2.589999884E-2
8.506859375E0,-8.009999990E-2,3.273999989E-1,7.739999890E-2
8.516784375E0,-8.980000019E-2,4.050999880E-1,9.989999980E-2
8.526710937E0,-1.305999905E-1,4.354999959E-1,5.079999939E-2
8.536637500E0,-1.779000014E-1,4.976999760E-1,1.375999898E-1
8.546564062E0,-1.103999987E-1,5.120999813E-1,1.271999925E-1
8.556490625E0,-1.319999993E-2,5.964999795E-1,2.433999926E-1
8.566417187E0,7.999999449E-3,6.358000040E-1,3.635999858E-1
8.576343750E0,7.639999688E-2,6.295999885E-1,3.501999974E-1
8.586268750E0,1.358000040E-1,6.132999659E-1,3.231999874E-1
8.596195312E0,2.090999931E-1,5.551999807E-1,1.256999969E-1
8.606121875E0,1.862999946E-1,5.392999649E-1,-3.790000081E-2
8.616048437E0,9.820000082E-2,4.987999797E-1,-2.829999849E-2
8.625975000E0,1.312000006E-1,4.061999917E-1,-4.199999943E-2
8.635901562E0,1.001999974E-1,4.310999811E-1,6.560000032E-2
8.645828125E0,2.809999883E-2,4.254999757E-1,-2.689999901E-2
8.655753125E0,-1.518999934E-1,4.461999834E-1,-1.816999912E-1
8.665679687E0,-2.721999884E-1,4.571999907E-1,-1.111999974E-1
8.675606250E0,-2.506999969E-1,3.714999855E-1,-5.939999968E-2
8.685532812E0,-2.179999948E-1,3.253999949E-1,1.999999955E-2
8.695459375E0,-2.879999951E-2,3.321000040E-1,4.629999772E-2
8.705385937E0,4.479999840E-2,2.766000032E-1,1.189999953E-1
8.715312500E0,8.489999920E-2,2.701999843E-1,1.262999922E-1
8.725237500E0,-2.429999970E-2,1.838999987E-1,3.059999831E-2
8.735164062E0,1.087999940E-1,2.181999981E-1,1.689999998E-1
8.745090625E0,3.211999834E-1,1.856999993E-1,1.495999992E-1
8.755017187E0,3.867000043E-1,2.011999935E-1,1.193000004E-1
8.764942187E0,4.092999995E-1,2.047999948E-1,-1.559999958E-2
8.774870312E0,2.363999933E-1,1.762000024E-1,3.460000083E-2
8.784796875E0,3.749999776E-2,1.116999984E-1,-2.549999952E-2
8.794721875E0,-2.799999900E-2,2.045999914E-1,1.358999908E-1
8.804648437E0,-1.172999963E-1,1.312000006E-1,2.228999883E-1
8.814575000E0,-1.218999997E-1,2.258999944E-1,1.678999960E-1
8.824501562E0,-6.499999668E-3,2.214999944E-1,1.289999932E-1
8.834428125E0,3.749999776E-2,2.368999869E-1,-9.300000034E-3
8.844354687E0,1.180000007E-1,2.336999923E-1,-1.532000005E-1
8.854281250E0,1.152999997E-1,2.427999973E-1,-2.298999876E-1
8.864206250E0,5.519999936E-2,2.333999872E-1,-1.579999924E-1
8.874132812E0,-1.500000013E-3,2.226999998E-1,-8.999999613E-2
8.884059375E0,-9.999999404E-2,2.221999913E-1,-6.089999899E-2
8.893985937E0,-1.288999915E-1,1.827999949E-1,-1.105999947E-1
8.903912500E0,1.150000002E-2,1.882999986E-1,-3.350000083E-2
8.913839062E0,7.769999653E-2,1.761000007E-1,2.419999987E-2
8.923764062E0,4.609999806E-2,2.012999952E-1,-4.719999805E-2
8.933690625E0,5.639999732E-2,2.117999941E-1,8.229999989E-2
8.943617187E0,2.439999953E-2,2.181999981E-1,1.651999950E-1
8.953543750E0,-1.105999947E-1,2.328999937E-1,2.089999914E-1
8.963470312E0,-1.241999939E-1,2.712000012E-1,3.612000048E-1
8.973396875E0,-1.022999957E-1,3.091999888E-1,4.147000015E-1
8.983321875E0,-9.429999441E-2,4.321999848E-1,2.665999830E-1
8.993248437E0,9.099999443E-3,3.835999966E-1,8.399999887E-2
9.003175000E0,-1.111999974E-1,4.139999747E-1,1.081999987E-1
9.013101562E0,-7.669999450E-2,4.456999898E-1,4.079999775E-2
9.023028125E0,-3.849999979E-2,4.188999832E-1,-2.809999883E-2
9.032954687E0,5.109999701E-2,3.898999989E-1,-1.180000007E-1
9.042881250E0,1.193999946E-1,3.116999865E-1,-1.846999973E-1
9.052807812E0,1.420999914E-1,3.087999821E-1,-1.607999951E-1
9.062732812E0,1.194999963E-1,2.980999947E-1,-9.359999746E-2
9.072659375E0,7.739999890E-2,3.109999895E-1,-9.899999946E-3
9.082585937E0,1.109999977E-2,2.906999886E-1,1.213999987E-1
9.092512500E0,-4.879999906E-2,3.536999822E-1,2.168999910E-1
9.102439062E0,-8.439999819E-2,3.328000009E-1,2.741000056E-1
9.112365625E0,-1.026000008E-1,4.071999788E-1,1.146999970E-1
9.122290625E0,2.499999944E-3,3.531999886E-1,1.740000024E-2
9.132217187E0,-4.169999808E-2,3.249999881E-1,-6.999999750E-3
9.142143750E0,-2.699999884E-2,3.782999814E-1,-1.009999961E-1
9.152070312E0,1.750000007E-2,3.346999884E-1,-2.259999961E-1
9.161996875E0,8.219999820E-2,2.646999955E-1,-2.041999996E-1
9.171923437E0,5.799999833E-2,1.950999945E-1,-1.718999892E-1
9.181848437E0,3.830000013E-2,2.062999904E-1,-3.339999914E-2
9.191775000E0,-6.999999750E-3,2.314999998E-1,6.089999899E-2
9.201701562E0,-4.649999738E-2,2.437999994E-1,1.743000001E-1
9.211628125E0,-7.629999518E-2,2.771999836E-1,1.783999950E-1
9.221554687E0,1.219999976E-2,2.732999921E-1,1.232999936E-1
9.231479687E0,1.008000001E-1,2.177999914E-1,-9.999999311E-4
9.241407812E0,6.199999899E-2,2.883999944E-1,-2.499999851E-2
9.251332812E0,6.069999933E-2,2.672999799E-1,-3.709999844E-2
9.261259375E0,1.219999976E-2,2.572999895E-1,5.989999697E-2
9.271185937E0,5.429999903E-2,2.960999906E-1,6.189999729E-2
9.281110937E0,2.319999970E-2,2.578999996E-1,6.319999695E-2
9.291039062E0,-9.479999542E-2,2.983999848E-1,7.580000162E-2
9.300965625E0,-6.390000135E-2,2.644999921E-1,1.639000028E-1
9.310892187E0,-2.300000004E-2,2.502000034E-1,1.869999915E-1
9.320817187E0,-6.960000098E-2,2.426999956E-1,4.309999943E-2
9.330743750E0,-9.300000034E-3,3.261999786E-1,1.169999987E-1
9.340670312E0,3.379999846E-2,2.719999850E-1,4.470000044E-2
9.350596875E0,-4.079999775E-2,3.398999870E-1,8.799999952E-3
9.360523437E0,8.109999448E-2,3.186999857E-1,4.120000079E-2
9.370448437E0,1.453000009E-1,2.690999806E-1,-6.449999660E-2
9.380376562E0,1.304000020E-1,2.386999875E-1,3.039999865E-2
9.390301562E0,1.196999997E-1,2.566999793E-1,-5.899999756E-3
9.400226562E0,5.409999937E-2,2.665999830E-1,-2.999999851E-4
9.410153125E0,1.020999998E-1,2.671000063E-1,5.109999701E-2
9.420081250E0,1.206999943E-1,2.406999916E-1,3.319999948E-2
9.430007812E0,9.420000017E-2,2.405999899E-1,9.300000034E-3
9.439932812E0,-6.599999964E-3,3.290999830E-1,2.279999852E-2
9.449859375E0,-7.660000026E-2,3.206999898E-1,7.159999758E-2
9.459785937E0,-1.772999913E-1,3.312999904E-1,1.641999930E-1
9.469712500E0,-2.055999935E-1,4.043000042E-1,2.906000018E-1
9.479637500E0,-1.644999981E-1,4.050000012E-1,6.469999999E-2
9.489564062E0,-9.239999950E-2,3.783999979E-1,4.979999736E-2
9.499490625E0,-1.769999973E-2,4.062999785E-1,-7.559999824E-2
9.509417187E0,1.640000008E-2,3.152999878E-1,-3.009999916E-2
9.519343750E0,6.729999930E-2,3.186999857E-1,3.549999744E-2
9.529270312E0,1.840000041E-2,3.279999793E-1,6.079999730E-2
9.539196875E0,5.999999703E-4,2.874000072E-1,6.199999899E-2
9.549121875E0,8.359999955E-2,3.283999860E-1,3.319999948E-2
9.559048437E0,4.499999806E-2,3.089999855E-1,1.549999975E-2
9.568975000E0,-9.899999946E-3,3.470000029E-1,1.389999967E-2
9.578901562E0,-5.299999937E-2,3.757999837E-1,6.610000134E-2
9.588828125E0,2.979999967E-2,2.861999869E-1,1.049999986E-2
9.598754687E0,3.599999938E-3,2.832999825E-1,-2.869999968E-2
9.608681250E0,-5.029999837E-2,2.769999802E-1,-1.314999908E-1
9.618606250E0,9.699999355E-3,2.034999877E-1,-8.349999785E-2
9.628532812E0,1.196999997E-1,1.982000023E-1,-5.209999904E-2
9.638459375E0,9.449999779E-2,2.647999823E-1,7.649999857E-2
9.648385937E0,1.589999907E-2,1.946000010E-1,5.279999971E-2
9.658312500E0,-3.289999813E-2,2.079999894E-1,9.559999406E-2
9.668237500E0,-1.649999991E-2,2.507999837E-1,9.779999405E-2
9.678164062E0,1.489999983E-2,2.444999963E-1,6.659999490E-2
9.688090625E0,1.504999995E-1,2.263000011E-1,3.039999865E-2
9.698017187E0,1.006999984E-1,2.529999912E-1,1.688999981E-1
9.707943750E0,4.099999741E-2,2.540000081E-1,-1.649999991E-2
9.717870312E0,-3.109999932E-2,2.664999962E-1,8.419999480E-2
9.727796875E0,-1.270000041E-1,2.992999852E-1,1.237999946E-1
9.737721875E0,-1.317999959E-1,3.215999901E-1,8.999999613E-2
9.747648437E0,-1.530999988E-1,3.317999840E-1,1.709000021E-1
9.757575000E0,-1.706999987E-1,4.111000001E-1,-1.439999975E-2
9.767501562E0,-2.129999995E-1,3.971000016E-1,-9.070000052E-2
9.777428125E0,-1.074999943E-1,3.127000034E-1,-9.839999676E-2
9.787354687E0,2.649999969E-2,3.348999918E-1,-1.122999936E-1
9.797279687E0,1.403999925E-1,2.592000067E-1,2.269999869E-2
9.807206250E0,1.570999920E-1,2.547999918E-1,-9.399999864E-3
9.817132812E0,1.533000022E-1,2.335999906E-1,1.599999890E-2
9.827059375E0,1.356000006E-1,2.240999937E-1,3.189999983E-2
9.836985937E0,8.569999784E-2,2.069999874E-1,3.959999979E-2
9.846912500E0,8.049999923E-2,1.890999973E-1,8.339999616E-2
9.856839062E0,6.949999928E-2,2.131999880E-1,1.049999967E-1
9.866764062E0,8.199999481E-2,1.999999881E-1,1.506000012E-1
9.876690625E0,3.339999914E-2,2.166000009E-1,1.419999897E-1
9.886617187E0,3.999999899E-4,1.948999912E-1,1.372999996E-1
9.896543750E0,3.489999846E-2,2.983999848E-1,7.249999791E-2
9.906470312E0,4.140000045E-2,2.701999843E-1,-4.989999905E-2
9.916395312E0,-4.899999872E-2,2.397999913E-1,1.399999950E-3
9.926321875E0,-7.639999688E-2,3.167999983E-1,4.470000044E-2
9.936250000E0,-7.440000027E-2,3.127999902E-1,1.929999888E-2
9.946175000E0,-2.250999957E-1,4.052999914E-1,1.319999993E-2
9.956101562E0,-1.781999916E-1,4.147000015E-1,7.069999725E-2
9.966028125E0,-8.959999681E-2,4.143999815E-1,8.569999784E-2
9.975954687E0,-2.449999936E-2,4.012999833E-1,-1.099999994E-3
9.985881250E0,6.449999660E-2,3.386999965E-1,-6.250000000E-2
9.995806250E0,5.920000002E-2,3.939999938E-1,-7.379999757E-2
1.000573281E1,7.589999586E-2,2.901999950E-1,-7.519999892E-2
1.001565938E1,4.910000041E-2,2.764999866E-1,4.759999737E-2
1.002558594E1,2.499999944E-3,3.665999770E-1,1.909999996E-1
1.003551250E1,-2.669999935E-2,3.240999877E-1,2.560999990E-1
1.004543750E1,6.989999861E-2,3.210999966E-1,1.468999982E-1
1.005536562E1,1.375999898E-1,2.789999843E-1,4.069999978E-2
1.006529219E1,8.339999616E-2,2.633000016E-1,-1.370000001E-2
1.007521719E1,1.314000040E-1,2.541999817E-1,-1.960000023E-2
1.008514375E1,3.559999913E-2,1.975999922E-1,-1.595999897E-1
1.009507031E1,-7.490000129E-2,2.190999985E-1,-1.274999976E-1
1.010499688E1,-8.949999511E-2,2.504000068E-1,-9.869999439E-2
1.011492188E1,-2.290000021E-2,2.829000056E-1,-5.260000005E-2
1.012484844E1,3.529999778E-2,2.115999907E-1,1.424999982E-1
1.013477500E1,6.859999895E-2,1.832999885E-1,8.229999989E-2
1.014470156E1,1.146999970E-1,2.181999981E-1,1.605999917E-1
1.015462656E1,1.305000037E-1,3.175999820E-1,2.594999969E-1
1.016455469E1,7.249999791E-2,2.316999882E-1,1.768999994E-1
1.017447969E1,2.689999901E-2,3.080999851E-1,1.474999934E-1
1.018440625E1,-4.849999771E-2,2.687999904E-1,1.206000000E-1
1.019433281E1,-2.410000004E-2,3.702999949E-1,7.400000002E-3
1.020425938E1,-4.699999839E-2,3.064999878E-1,-8.349999785E-2
1.021418594E1,3.929999843E-2,3.024999797E-1,-3.810000047E-2
1.022411094E1,7.479999959E-2,3.482999802E-1,1.469999924E-2
1.023403750E1,7.419999689E-2,3.543999791E-1,4.719999805E-2
1.024396406E1,8.049999923E-2,3.136999905E-1,3.549999744E-2
1.025389219E1,4.889999703E-2,3.567000031E-1,9.699999541E-2
1.026381719E1,4.829999804E-2,3.596999943E-1,9.179999679E-2
1.027374375E1,-1.200000010E-2,3.716000021E-1,9.709999710E-2
1.028366875E1,-1.206000000E-1,3.928999901E-1,1.146999970E-1
1.029359688E1,-1.965999901E-1,4.233999848E-1,8.919999748E-2
1.030352188E1,-2.069999874E-1,4.535000026E-1,1.340999901E-1
1.031344844E1,-2.044999897E-1,5.406999588E-1,7.479999959E-2
1.032337500E1,-2.430000007E-1,5.184000134E-1,1.189999934E-2
1.033330156E1,6.300000101E-2,4.942999780E-1,-4.769999906E-2
1.034322813E1,-1.124999970E-1,3.896999955E-1,-1.102999970E-1
1.035315312E1,3.370000049E-2,3.622999787E-1,-5.329999700E-2
1.036307969E1,1.368999928E-1,3.325999975E-1,-1.430999935E-1
1.037300781E1,1.453000009E-1,2.831999958E-1,-1.661999971E-1
1.038293281E1,2.128999978E-1,1.966999918E-1,-1.223999932E-1
1.039286094E1,1.107999980E-1,2.039999962E-1,2.009999938E-2
1.040278594E1,8.399999887E-2,1.243999973E-1,9.349999577E-2
1.041271094E1,3.700000001E-3,1.952999979E-1,1.189999953E-1
1.042263906E1,1.939999871E-2,1.636999995E-1,2.028999925E-1
1.043256406E1,9.599999525E-3,1.712999940E-1,1.275999993E-1
1.044249219E1,1.475999951E-1,1.886999905E-1,1.149000004E-1
1.045241719E1,1.486999989E-1,1.746999919E-1,4.219999909E-2
1.046234375E1,5.299999937E-2,1.694999933E-1,-1.300000004E-3
1.047227031E1,-6.799999624E-3,2.316000015E-1,1.083000004E-1
1.048219688E1,-8.449999988E-2,2.270999998E-1,1.595999897E-1
1.049212344E1,-5.069999769E-2,3.095999956E-1,1.715999991E-1
1.050205000E1,-2.719999850E-2,2.734999955E-1,7.109999657E-2
1.051197656E1,7.299999893E-2,2.250999957E-1,-1.000999957E-1
1.052190156E1,-1.950000040E-2,2.588000000E-1,-1.444000006E-1
1.053182969E1,-1.280999929E-1,2.787999809E-1,-1.319999993E-1
1.054175469E1,-2.081999928E-1,2.996999919E-1,1.669999957E-2
1.055167969E1,-1.528999954E-1,2.700999975E-1,-7.180000097E-2
1.056160781E1,-1.254999936E-1,2.936999798E-1,-1.789999940E-2
1.057153438E1,-1.299999934E-2,3.195999861E-1,-2.259999886E-2
1.058145938E1,1.479000002E-1,2.694999874E-1,6.799999624E-3
1.059138594E1,1.153999940E-1,2.477999926E-1,5.819999799E-2
1.060131250E1,8.289999515E-2,2.212999910E-1,1.052999943E-1
1.061123906E1,1.332999915E-1,1.662999988E-1,9.359999746E-2
1.062116563E1,2.979999967E-2,1.731999964E-1,1.526999921E-1
1.063109219E1,-6.839999557E-2,2.558999956E-1,8.669999987E-2
1.064101719E1,-3.599999938E-3,2.491999865E-1,2.429999970E-2
1.065094375E1,2.429999970E-2,2.892999947E-1,2.999999851E-4
1.066087031E1,6.790000200E-2,2.861999869E-1,-1.037999988E-1
1.067079688E1,1.712999940E-1,2.833999991E-1,-4.199999850E-3
1.068072344E1,1.163999960E-1,3.139999807E-1,9.910000116E-2
1.069064844E1,-3.700000001E-3,3.176999986E-1,1.842999905E-1
1.070057500E1,-1.829999872E-2,3.519999981E-1,1.894999892E-1
1.071050156E1,-8.029999584E-2,3.788999915E-1,1.316999942E-1
1.072042813E1,-4.739999771E-2,3.748999834E-1,1.186999977E-1
1.073035469E1,9.200000204E-3,4.365999997E-1,6.209999695E-2
1.074028125E1,-2.219999954E-2,4.359000027E-1,2.349999920E-2
1.075020781E1,2.899999963E-3,4.177999794E-1,1.178999990E-1
1.076013438E1,-2.699999837E-3,4.380999804E-1,7.259999961E-2
1.077005938E1,2.479999885E-2,3.725000024E-1,1.599999964E-1
1.077998594E1,3.610000014E-2,3.583999872E-1,1.715999991E-1
1.078991250E1,4.409999773E-2,3.483999968E-1,1.899999976E-1
1.079983906E1,1.213999987E-1,3.443999887E-1,1.105999947E-1
1.080976562E1,-6.989999861E-2,3.343999982E-1,-9.539999813E-2
1.081969219E1,3.500000015E-2,2.280000001E-1,-2.351000011E-1
1.082961875E1,-7.199999876E-3,2.788999975E-1,-3.886999786E-1
1.083954375E1,-2.999999933E-2,2.673999965E-1,-3.382999897E-1
1.084947031E1,2.049999870E-2,1.030000001E-1,-1.674999893E-1
1.085939688E1,-8.999999613E-2,2.180999964E-1,-1.092000008E-1
1.086932344E1,-1.064999998E-1,2.006999999E-1,2.689999901E-2
1.087925000E1,-1.349999905E-1,1.912999898E-1,1.659999937E-1
1.088917500E1,-1.459999979E-1,1.669999957E-1,2.369999886E-1
1.089910156E1,-5.859999731E-2,1.651999950E-1,2.899000049E-1
1.090902812E1,6.260000169E-2,1.577000022E-1,2.308999896E-1
1.091895469E1,9.619999677E-2,2.474999875E-1,1.305000037E-1
1.092888125E1,1.462000012E-1,2.437999994E-1,-7.999999798E-4
1.093880781E1,1.180999950E-1,2.137999982E-1,-1.361999959E-1
1.094873281E1,1.137999967E-1,2.412999868E-1,-4.160000011E-2
1.095865938E1,4.829999804E-2,2.567999959E-1,-2.119999938E-2
1.096858594E1,-5.889999866E-2,3.039000034E-1,9.510000050E-2
1.097851250E1,-8.240000159E-2,3.134000003E-1,1.127999946E-1
1.098843906E1,-2.899999917E-2,3.447999954E-1,4.439999908E-2
1.099836562E1,-3.500000015E-2,3.989999890E-1,2.133999914E-1
1.100829062E1,-7.099999487E-2,3.951999843E-1,1.704999954E-1
1.101821875E1,-1.630000025E-2,3.912999928E-1,1.748999953E-1
1.102814375E1,3.079999983E-2,3.190000057E-1,1.317999959E-1
1.103807031E1,1.393999904E-1,3.454000056E-1,3.959999979E-2
1.104799688E1,2.075999975E-1,3.267999887E-1,1.119999960E-2
1.105792344E1,7.140000165E-2,3.161999881E-1,-3.339999914E-2
1.106785000E1,-1.679999940E-2,2.705999911E-1,-1.299999952E-1
1.107777656E1,-2.039999887E-2,2.908000052E-1,-1.556999981E-1
1.108770156E1,-4.259999841E-2,3.044999838E-1,-5.299999844E-3
1.109762812E1,-8.359999955E-2,2.628999949E-1,1.577999890E-1
1.110755469E1,-1.339999959E-2,3.120000064E-1,1.623999923E-1
1.111748125E1,2.719999850E-2,1.920000017E-1,-9.479999542E-2
1.112740781E1,8.700000122E-3,1.893000007E-1,-1.841999888E-1
1.113733438E1,6.000000052E-3,2.219999880E-1,-1.919000000E-1
1.114726094E1,3.500000015E-2,1.341999918E-1,-1.268000007E-1
1.115718594E1,1.679999940E-2,1.955999881E-1,3.969999775E-2
1.116711250E1,1.689999923E-2,2.021999955E-1,2.300000051E-3
1.117703906E1,1.919999905E-2,1.938999891E-1,1.072999984E-1
1.118696563E1,-5.799999926E-3,2.361999899E-1,9.899999946E-2
1.119689219E1,4.589999840E-2,2.028999925E-1,1.551999897E-1
1.120681875E1,1.394999921E-1,2.617000043E-1,2.964999974E-1
1.121674531E1,9.030000120E-2,3.050999939E-1,2.809999883E-1
1.122667031E1,1.539999992E-2,3.191999793E-1,2.800999880E-1
1.123659688E1,-2.779999934E-2,3.917999864E-1,1.701999903E-1
1.124652344E1,-1.409000009E-1,4.081999958E-1,2.249999903E-2
1.125645000E1,-1.560999900E-1,4.551999867E-1,-1.819999889E-2
1.126637500E1,-4.989999905E-2,3.840999901E-1,1.789999940E-2
1.127630156E1,-1.359999925E-2,4.760999978E-1,2.199999988E-2
1.128622813E1,-8.669999987E-2,3.887999952E-1,-6.359999627E-2
1.129615469E1,-5.040000007E-2,4.706999958E-1,-5.199999735E-2
1.130607969E1,4.779999703E-2,3.971999884E-1,-4.529999942E-2
1.131600781E1,1.129999980E-1,3.421999812E-1,-1.889999956E-2
1.132593438E1,4.389999807E-2,3.391000032E-1,8.269999921E-2
1.133586094E1,1.297999918E-1,2.870000005E-1,-6.199999899E-2
1.134578750E1,3.179999813E-2,2.069999874E-1,-3.179999813E-2
1.135571250E1,-1.999999862E-3,2.207999974E-1,-1.576000005E-1
1.136563906E1,3.039999865E-2,1.678999960E-1,-5.480000004E-2
1.137556562E1,-5.599999800E-3,1.604000032E-1,-9.209999442E-2
1.138549219E1,2.859999985E-2,1.383000016E-1,8.299999870E-3
1.139541875E1,-4.050000012E-2,1.340999901E-1,-1.329999976E-2
1.140534375E1,-5.069999769E-2,1.560999900E-1,1.077999994E-1
1.141527031E1,-7.220000029E-2,2.351000011E-1,1.057999954E-1
1.142519688E1,-9.609999508E-2,2.080999911E-1,5.659999698E-2
1.143512344E1,-1.340000033E-1,2.680000067E-1,7.569999993E-2
1.144505000E1,-1.052000001E-1,3.172999918E-1,-4.949999973E-2
1.145497656E1,-1.400000006E-1,3.042999804E-1,-4.519999772E-2
1.146490313E1,-1.023999974E-1,3.983999789E-1,-5.879999697E-2
1.147482812E1,-6.480000168E-2,4.052000046E-1,-1.850000024E-2
1.148475469E1,-4.449999705E-2,4.013999999E-1,2.199999988E-3
1.149468125E1,5.299999844E-3,4.484999776E-1,3.999999724E-3
1.150460781E1,5.439999700E-2,4.390999973E-1,1.169999987E-1
1.151453438E1,7.279999554E-2,4.693999887E-1,8.579999954E-2
1.152446094E1,1.056999937E-1,3.959999979E-1,2.492999882E-1
1.153438750E1,1.077999994E-1,4.445999861E-1,3.294000030E-1
1.154431250E1,1.141999960E-1,4.371999800E-1,2.856999934E-1
1.155424062E1,1.521999985E-1,3.899999857E-1,2.282999903E-1
1.156416563E1,1.233999953E-1,4.123999774E-1,1.133999974E-1
1.157409219E1,2.211999893E-1,4.540999830E-1,-8.769999444E-2
1.158401875E1,2.069999874E-1,4.418999851E-1,-1.024999991E-1
1.159394531E1,7.180000097E-2,4.433999956E-1,-1.916999966E-1
1.160387188E1,-3.779999912E-2,3.443000019E-1,-1.568999887E-1
1.161379844E1,-1.078999937E-1,4.982999861E-1,-1.445999891E-1
1.162372344E1,-2.182999998E-1,4.903999865E-1,2.259999886E-2
1.163365000E1,-2.734999955E-1,5.561000109E-1,2.550999820E-1
1.164357656E1,-2.648999989E-1,4.952999949E-1,4.581999779E-1
1.165350312E1,-2.450999916E-1,4.402999878E-1,4.369999766E-1
1.166342969E1,-1.802999973E-1,3.524999917E-1,3.012999892E-1
1.167335625E1,-2.819999866E-2,3.553999960E-1,-1.389999967E-2
1.168328281E1,8.429999650E-2,2.364999950E-1,-2.786000073E-1
1.169320781E1,7.039999962E-2,1.819999963E-1,-3.788999915E-1
1.170313438E1,1.180000007E-1,1.594000012E-1,-4.250999987E-1
1.171306094E1,9.839999676E-2,1.375999898E-1,-3.116999865E-1
1.172298750E1,2.479999885E-2,8.150000125E-2,-3.058999777E-1
1.173291406E1,5.659999698E-2,5.069999769E-2,-2.529000044E-1
1.174284063E1,1.960000023E-2,2.379999869E-2,-1.806999892E-1
1.175276562E1,1.118999943E-1,-3.819999844E-2,-4.729999974E-2
1.176269219E1,6.870000064E-2,-7.799999788E-3,2.694000006E-1
1.177261875E1,7.649999857E-2,-2.899999963E-3,3.592999876E-1
1.178254531E1,7.849999517E-2,6.199999712E-3,3.710999787E-1
1.179247188E1,4.729999974E-2,2.730000019E-2,1.952999979E-1
1.180239844E1,4.800000042E-2,1.071999967E-1,6.719999760E-2
1.181232344E1,1.273999959E-1,1.608999968E-1,-4.710000008E-2
1.182225000E1,5.069999769E-2,3.157999814E-1,-1.477999985E-1
1.183217656E1,3.929999843E-2,3.885999918E-1,-1.307999939E-1
1.184210313E1,-1.829999872E-2,5.141999722E-1,7.899999619E-2
1.185202969E1,-5.460000038E-2,5.924999714E-1,1.877999902E-1
1.186195469E1,-9.049999714E-2,7.336999774E-1,3.583000004E-1
1.187188125E1,-1.853999943E-1,8.731999993E-1,5.196999907E-1
1.188180938E1,-1.947999895E-1,9.688999653E-1,4.694999754E-1
1.189173438E1,-1.750999987E-1,9.475999475E-1,4.174000025E-1
1.190166094E1,-1.050999984E-1,1.021700025E0,2.340999991E-1
1.191158750E1,-1.301999986E-1,9.684999585E-1,4.199999850E-3
1.192151406E1,-7.779999822E-2,1.001899958E0,-1.005999967E-1
1.193144062E1,-2.699999837E-3,9.811999798E-1,-1.220999956E-1
1.194136563E1,5.900000036E-2,9.158999920E-1,-1.506000012E-1
1.195129219E1,6.030000001E-2,9.195999503E-1,-1.588999927E-1
1.196121875E1,4.160000011E-2,8.887999654E-1,-7.180000097E-2
1.197114531E1,7.119999826E-2,7.453999519E-1,5.169999972E-2
1.198107188E1,1.224999949E-1,7.532999516E-1,1.859000027E-1
1.199099844E1,1.601999998E-1,7.136999965E-1,1.115999967E-1
1.200092500E1,1.587999910E-1,6.389999986E-1,1.447999924E-1
1.201085156E1,1.718000025E-1,6.536999941E-1,1.158999950E-1
1.202077656E1,6.129999831E-2,6.179000139E-1,8.359999955E-2
1.203070312E1,4.100000020E-3,6.908999681E-1,2.356999964E-1
1.204062969E1,-6.239999831E-2,7.640999556E-1,1.652999967E-1
1.205055469E1,-1.129999980E-1,7.360000014E-1,8.999999613E-2
1.206048125E1,-1.246999949E-1,7.445999980E-1,3.299999982E-3
1.207040781E1,-7.090000063E-2,6.847000122E-1,-2.119999938E-2
1.208033438E1,-5.659999698E-2,7.082999945E-1,-2.300000004E-2
1.209026094E1,-4.149999842E-2,6.679999828E-1,1.525999904E-1
1.210018750E1,7.409999520E-2,5.399000049E-1,1.087999940E-1
1.211011250E1,2.749999985E-2,5.220000148E-1,1.130999997E-1
1.212003906E1,1.728999913E-1,3.980999887E-1,1.225999966E-1
1.212996562E1,1.497000009E-1,3.935999870E-1,8.259999752E-2
1.213989219E1,1.723999977E-1,4.560000002E-1,1.315999925E-1
1.214981875E1,1.356000006E-1,4.882999957E-1,5.040000007E-2
1.215974531E1,4.779999703E-2,4.782999754E-1,-6.149999797E-2
1.216967031E1,2.599999867E-2,5.327000022E-1,-1.061999947E-1
1.217959688E1,-6.089999899E-2,6.247000098E-1,-9.239999950E-2
1.218952344E1,-1.758999974E-1,7.324000001E-1,-7.379999757E-2
1.219945000E1,-2.084999979E-1,7.738999724E-1,2.229999937E-2
1.220937656E1,-3.544999957E-1,8.671000004E-1,7.289999723E-2
1.221930313E1,-2.933999896E-1,9.060999751E-1,1.509999931E-1
1.222922969E1,-1.979999989E-1,1.018199921E0,2.561999857E-1
1.223915469E1,2.129999921E-2,1.064499974E0,2.928999960E-1
1.224908125E1,1.022999957E-1,1.011699915E0,2.210999876E-1
1.225900781E1,1.567000002E-1,1.115299940E0,2.131000012E-1
1.226893438E1,2.058999985E-1,1.059000015E0,1.120999977E-1
1.227886094E1,1.647000015E-1,1.109399915E0,1.352999955E-1
1.228878750E1,1.528999954E-1,1.022699952E0,1.823999882E-1
1.229871406E1,6.879999489E-2,1.065400004E0,2.258999944E-1
1.230863906E1,3.170000017E-2,1.090199947E0,2.963999808E-1
1.231856563E1,-5.439999700E-2,1.166499972E0,3.064000010E-1
1.232849219E1,-1.482999921E-1,1.156199932E0,3.340999782E-1
1.233841875E1,-1.040999964E-1,1.144500017E0,2.759999931E-1
1.234834531E1,-2.104000002E-1,1.096300006E0,3.370000049E-2
1.235827188E1,-6.769999862E-2,1.042699933E0,-6.099999696E-2
1.236819844E1,6.769999862E-2,1.078400016E0,-2.588999867E-1
1.237812344E1,7.880000025E-2,1.014699936E0,-1.451999992E-1
1.238805000E1,1.744999886E-1,9.800999761E-1,-8.679999411E-2
1.239797656E1,2.067999989E-1,8.544999957E-1,3.779999912E-2
1.240790312E1,1.206999943E-1,8.209999800E-1,1.235999987E-1
1.241782969E1,5.920000002E-2,7.741000056E-1,1.475999951E-1
1.242775625E1,2.869999968E-2,7.768999934E-1,1.650999933E-1
1.243768281E1,-1.200000010E-2,8.093000054E-1,9.950000048E-2
1.244760781E1,-8.150000125E-2,7.688999772E-1,-1.260000002E-2
1.245753438E1,-4.829999804E-2,7.649999857E-1,-9.549999982E-2
1.246746094E1,-6.039999798E-2,7.605999708E-1,-4.449999705E-2
1.247738750E1,-1.110999957E-1,8.542000055E-1,3.759999946E-2
1.248731406E1,-1.651999950E-1,8.808999658E-1,1.131999940E-1
1.249724063E1,-1.358999908E-1,9.120000005E-1,2.314999998E-1
1.250716562E1,-2.960000001E-2,9.490999579E-1,3.682000041E-1
1.251709219E1,-3.159999847E-2,1.007099986E0,3.328000009E-1
1.252701875E1,3.299999982E-3,1.106400013E0,3.527999818E-1
1.253694531E1,8.590000123E-2,1.096499920E0,2.314999998E-1
1.254687188E1,7.329999655E-2,1.123399973E0,1.823999882E-1
1.255679844E1,6.179999933E-2,1.221300006E0,7.479999959E-2
1.256672500E1,9.399999864E-3,1.239499927E0,7.490000129E-2
1.257665000E1,-9.800000116E-3,1.146499991E0,5.289999768E-2
1.258657656E1,-1.779999956E-2,1.286899924E0,-1.040000003E-2
1.259650312E1,2.759999968E-2,1.190199971E0,-4.580000043E-2
1.260642969E1,5.810000002E-2,1.197299957E0,1.350999922E-1
1.261635625E1,1.409000009E-1,1.247099996E0,2.954999804E-1
1.262628281E1,1.545999944E-1,1.252200007E0,4.100999832E-1
1.263620938E1,1.318999976E-1,1.253899932E0,4.573999941E-1
1.264613438E1,1.130999997E-1,1.287299991E0,3.190999925E-1
1.265606094E1,5.539999902E-2,1.208199978E0,1.805000007E-1
1.266598750E1,-4.250000045E-2,1.270799994E0,1.251000017E-1
1.267591406E1,-1.371999979E-1,1.251299977E0,1.580999941E-1
1.268584062E1,-5.119999871E-2,1.110899925E0,1.563999951E-1
1.269576719E1,-1.153999940E-1,1.103600025E0,-2.799999900E-3
1.270569219E1,-1.212999970E-1,9.828999639E-1,-2.446999997E-1
1.271561875E1,-1.238999963E-1,8.883999586E-1,-3.698000014E-1
1.272554531E1,-1.541000009E-1,8.420000076E-1,-3.271999955E-1
1.273547188E1,-1.439999975E-2,8.369999528E-1,-1.894000024E-1
1.274539688E1,-6.610000134E-2,7.974999547E-1,-1.062999964E-1
1.275532500E1,-2.609999850E-2,7.730000019E-1,-1.529999916E-2
1.276525156E1,5.509999767E-2,7.329999804E-1,1.235999987E-1
1.277517812E1,9.739999473E-2,7.536000013E-1,1.779000014E-1
1.278510313E1,1.432999969E-1,6.980999708E-1,2.672999799E-1
1.279502969E1,6.399999838E-3,6.552999616E-1,2.940999866E-1
1.280495625E1,-5.099999905E-2,7.504999638E-1,2.064999938E-1
1.281488125E1,-9.279999882E-2,7.850999832E-1,1.275999993E-1
1.282480781E1,-1.028999984E-1,7.892000079E-1,7.459999621E-2
1.283473438E1,-7.539999485E-2,8.668999672E-1,-5.900000036E-2
1.284466094E1,-5.639999732E-2,7.656999826E-1,-4.089999944E-2
1.285458750E1,9.299999475E-2,8.411999941E-1,2.039999887E-2
1.286451406E1,1.964999884E-1,8.592999578E-1,1.206999943E-1
1.287444062E1,1.297999918E-1,8.402999640E-1,2.186999917E-1
1.288436719E1,1.031999961E-1,8.854999542E-1,3.175999820E-1
1.289429375E1,3.759999946E-2,8.939999938E-1,3.203999996E-1
1.290422031E1,-6.899999827E-2,1.012499928E0,3.298999965E-1
1.291414531E1,-5.079999939E-2,1.072299957E0,3.051999807E-1
1.292407188E1,1.179999951E-2,1.140299916E0,2.418999970E-1
1.293399844E1,7.710000128E-2,1.123499990E0,9.279999882E-2
1.294392500E1,2.389999852E-2,1.212700009E0,1.052000001E-1
1.295385156E1,-5.260000005E-2,1.134400010E0,1.530999988E-1
1.296377656E1,-9.910000116E-2,1.174000025E0,2.283999920E-1
1.297370312E1,-8.439999819E-2,1.123799920E0,1.678999960E-1
1.298362969E1,-6.369999796E-2,1.115000010E0,1.215000004E-1
1.299355625E1,-1.750000007E-2,1.022599936E0,-7.189999521E-2
1.300348125E1,-8.540000021E-2,9.845999479E-1,-1.589999944E-1
1.301340781E1,3.879999742E-2,9.619999528E-1,-1.964000016E-1
1.302333438E1,-1.420000009E-2,8.938999772E-1,-4.979999736E-2
1.303326094E1,1.989999972E-2,8.863999844E-1,5.590000004E-2
1.304318750E1,1.829999872E-2,8.622999787E-1,3.680000082E-2
1.305311406E1,1.480000000E-2,7.322999835E-1,2.449999936E-2
1.306303906E1,7.899999619E-2,7.622999549E-1,6.539999694E-2
1.307296719E1,9.369999915E-2,7.129999995E-1,6.809999794E-2
1.308289375E1,1.621000022E-1,6.133999825E-1,1.879999973E-2
1.309281875E1,5.669999868E-2,6.604999900E-1,-5.309999734E-2
1.310274688E1,-4.010000080E-2,6.692999601E-1,-1.999999949E-4
1.311267188E1,-1.314999908E-1,7.477999926E-1,1.349999905E-1
1.312259844E1,-7.400000095E-2,6.911000013E-1,2.446999997E-1
1.313252500E1,-1.451999992E-1,7.141000032E-1,2.221999913E-1
1.314245156E1,-1.880999953E-1,8.100999594E-1,2.588999867E-1
1.315237656E1,-1.603000015E-1,8.172000051E-1,1.454999894E-1
1.316230313E1,-1.375000030E-1,8.714999557E-1,1.141999960E-1
1.317222969E1,3.329999745E-2,9.213999510E-1,4.429999739E-2
1.318215625E1,8.969999850E-2,8.710999489E-1,-2.899999963E-3
1.319208125E1,1.779999882E-1,9.450999498E-1,2.960000001E-2
1.320200781E1,2.021999955E-1,8.830999732E-1,6.019999832E-2
1.321193594E1,1.472000033E-1,8.543999791E-1,2.337999940E-1
1.322186094E1,1.758999974E-1,8.197999597E-1,2.793000042E-1
1.323178750E1,2.115999907E-1,8.374999762E-1,2.751999795E-1
1.324171406E1,1.767999977E-1,8.531999588E-1,9.849999845E-2
1.325164062E1,1.669999957E-2,8.385999799E-1,5.359999835E-2
1.326156719E1,-1.464999914E-1,8.653999567E-1,-4.289999977E-2
1.327149375E1,-2.829999924E-1,8.689999580E-1,-2.089999989E-2
1.328142031E1,-2.000999898E-1,8.514999747E-1,6.899999920E-3
1.329134531E1,-7.789999992E-2,7.893999815E-1,6.209999695E-2
1.330127188E1,-5.020000041E-2,7.558000088E-1,1.389999967E-2
1.331119844E1,4.999999702E-2,7.536000013E-1,7.999999449E-3
1.332112500E1,-4.429999739E-2,8.284999728E-1,-4.279999807E-2
1.333105156E1,-1.044999957E-1,7.850999832E-1,-7.530000061E-2
1.334097656E1,-3.920000046E-2,8.297999501E-1,-1.399999950E-2
1.335090469E1,-3.019999899E-2,8.251000047E-1,-8.249999583E-2
1.336082969E1,-8.699999750E-2,8.919000030E-1,7.599999756E-2
1.337075625E1,-7.699999958E-3,9.002999663E-1,5.769999698E-2
1.338068281E1,-3.599999938E-3,8.631999493E-1,2.245999873E-1
1.339060938E1,4.759999737E-2,9.065999985E-1,3.172999918E-1
1.340053594E1,9.609999508E-2,9.546999931E-1,3.691000044E-1
1.341046094E1,8.229999989E-2,1.001199961E0,2.791000009E-1
1.342038750E1,1.158999950E-1,9.803999662E-1,1.755999923E-1
1.343031562E1,1.934999973E-1,1.043599963E0,9.699999541E-2
1.344024063E1,1.990999877E-1,9.977999926E-1,1.228000000E-1
1.345016719E1,1.306999922E-1,9.898999929E-1,1.909999996E-1
1.346009219E1,6.109999865E-2,9.803999662E-1,8.940000087E-2
1.347002031E1,2.559999935E-2,9.919999838E-1,1.493999958E-1
1.347994531E1,-9.579999745E-2,1.001199961E0,4.389999807E-2
1.348987188E1,-9.749999642E-2,1.039499998E0,1.132999957E-1
1.349979844E1,-2.304999977E-1,1.008000016E0,1.597999930E-1
1.350972500E1,-1.530999988E-1,1.047099948E0,1.166999936E-1
1.351965156E1,-5.350000039E-2,1.035200000E0,8.439999819E-2
1.352957656E1,1.409999933E-2,9.953999519E-1,4.069999978E-2
1.353950313E1,6.759999692E-2,9.721999764E-1,-1.529999916E-2
1.354942969E1,9.259999543E-2,9.477999806E-1,7.899999619E-3
1.355935625E1,-1.960000023E-2,8.359000087E-1,1.709999889E-2
1.356928281E1,-7.479999959E-2,8.341000080E-1,1.035999954E-1
1.357920938E1,-1.359999925E-1,7.353999615E-1,1.195999980E-1
1.358913594E1,-1.493999958E-1,6.575999856E-1,7.669999450E-2
1.359906094E1,-9.239999950E-2,6.291999817E-1,5.309999734E-2
1.360898750E1,-5.699999630E-3,6.658999920E-1,-1.133999974E-1
1.361891406E1,3.599999938E-3,5.837999582E-1,-7.229999453E-2
1.362884062E1,-1.699999906E-3,5.681999922E-1,-1.151999980E-1
1.363876719E1,4.699999839E-2,5.220999718E-1,-1.441999972E-1
1.364869375E1,1.539999992E-1,5.976999998E-1,1.479000002E-1
1.365862031E1,2.265999913E-1,5.105000138E-1,1.764999926E-1
1.366854688E1,1.517999917E-1,5.038999915E-1,2.524999976E-1
1.367847188E1,9.279999882E-2,5.004000068E-1,2.223999947E-1
1.368839844E1,1.339999959E-2,5.691999793E-1,1.823000014E-1
1.369832500E1,-1.480000000E-2,6.227999926E-1,1.008999944E-1
1.370825156E1,-3.889999911E-2,6.448999643E-1,4.609999806E-2
1.371817813E1,-5.759999901E-2,5.961999893E-1,4.989999905E-2
1.372810312E1,-1.129999943E-2,6.351999640E-1,6.019999832E-2
1.373802969E1,-4.779999703E-2,7.013999820E-1,3.189999983E-2
1.374795625E1,5.199999735E-2,6.402999759E-1,-4.600000102E-3
1.375788281E1,1.498000026E-1,5.594999790E-1,-3.749999776E-2
1.376780938E1,1.287000030E-1,5.480999947E-1,2.279999852E-2
1.377773594E1,5.370000005E-2,5.669999719E-1,9.339999408E-2
1.378766250E1,2.389999852E-2,4.972999990E-1,1.389999967E-2
1.379758750E1,-1.321000010E-1,5.159999728E-1,3.079999983E-2
1.380751406E1,-1.366000026E-1,5.169999599E-1,9.989999980E-2
1.381744063E1,-3.280000016E-2,4.610999823E-1,1.826999933E-1
1.382736719E1,-3.869999945E-2,4.153999984E-1,2.052999884E-1
1.383729375E1,2.829999849E-2,3.813999891E-1,1.349999905E-1
1.384722031E1,-7.400000002E-3,2.660999894E-1,-4.399999976E-2
1.385714688E1,2.609999850E-2,2.261999995E-1,-1.059999987E-1
1.386707188E1,7.109999657E-2,1.225999966E-1,-1.805000007E-1
1.387699844E1,4.930000007E-2,8.179999888E-2,-3.281999826E-1
1.388692500E1,-7.509999722E-2,1.072999984E-1,-3.931999803E-1
1.389685156E1,-1.560999900E-1,1.096000001E-1,-1.339000016E-1
1.390677812E1,-2.293999940E-1,1.123999953E-1,-1.383000016E-1
1.391670469E1,-2.399999946E-1,5.929999799E-2,-5.709999800E-2
1.392663125E1,-3.280000016E-2,9.829999506E-2,3.709999844E-2
1.393655625E1,8.060000092E-2,8.899999410E-2,-6.079999730E-2
1.394648281E1,2.023999989E-1,8.940000087E-2,1.823999882E-1
1.395640938E1,2.127999961E-1,1.032999977E-1,3.658999801E-1
1.396633594E1,2.020999938E-1,1.524000019E-1,5.162999630E-1
1.397626250E1,1.523000002E-1,1.068999991E-1,4.052999914E-1
1.398618906E1,1.600999981E-1,1.985999942E-1,4.021999836E-1
1.399611406E1,1.704999954E-1,2.717999816E-1,3.249999881E-1
1.400604062E1,2.270999998E-1,3.233000040E-1,2.446999997E-1
1.401596719E1,2.139999904E-2,3.328999877E-1,6.199999899E-2
1.402589375E1,-1.043999940E-1,3.427000046E-1,-1.803999990E-1
1.403582031E1,-1.812999994E-1,3.814999759E-1,-2.171999961E-1
1.404574688E1,-2.128999978E-1,3.488999903E-1,-1.216999963E-1
1.405567188E1,-1.341999918E-1,3.222999871E-1,-1.307999939E-1
1.406559844E1,-7.580000162E-2,2.870999873E-1,-2.049999982E-1
1.407552500E1,1.689999923E-2,2.090999931E-1,-1.708000004E-1
1.408545156E1,6.149999797E-2,1.820999980E-1,-1.467999965E-1
1.409537813E1,1.185999960E-1,1.436000019E-1,-1.880999953E-1
1.410530469E1,6.769999862E-2,1.279999912E-1,-8.069999516E-2
1.411523125E1,-1.269999985E-2,1.530999988E-1,-1.344999969E-1
1.412515625E1,1.199999941E-3,1.903999895E-1,1.589999907E-2
1.413508281E1,-2.229999937E-2,1.422999948E-1,1.806000024E-1
1.414500938E1,-4.010000080E-2,1.465999931E-1,2.507999837E-1
1.415493594E1,-1.325999945E-1,2.522000074E-1,3.726999760E-1
1.416486250E1,-1.074000001E-1,2.655999959E-1,3.414999843E-1
1.417478906E1,-9.059999883E-2,3.181000054E-1,2.242999971E-1
1.418471562E1,-4.839999974E-2,3.637000024E-1,-8.499999531E-3
1.419464063E1,-3.790000081E-2,3.392999768E-1,8.700000122E-3
1.420456719E1,6.899999920E-3,3.278000057E-1,-5.559999868E-2
1.421449375E1,4.239999875E-2,2.779999971E-1,-2.502000034E-1
1.422442031E1,-6.499999668E-3,2.851999998E-1,-2.615000010E-1
1.423434688E1,-2.229999937E-2,2.472999990E-1,-2.038999945E-1
1.424427344E1,4.679999873E-2,2.212999910E-1,5.799999926E-3
1.425419844E1,9.839999676E-2,1.000999957E-1,1.171999946E-1
1.426412500E1,1.815999895E-1,1.225999966E-1,1.924999952E-1
1.427405156E1,2.534999847E-1,9.950000048E-2,1.498999894E-1
1.428397812E1,2.113999873E-1,9.899999946E-2,1.215999946E-1
1.429390469E1,1.119999960E-1,1.169999987E-1,1.030000001E-1
1.430383125E1,6.409999728E-2,1.351999938E-1,1.163999960E-1
1.431375781E1,-1.278999895E-1,1.472000033E-1,1.069999952E-2
1.432368281E1,-2.442999929E-1,1.625999957E-1,-1.282999963E-1
1.433360938E1,-2.748000026E-1,1.935999990E-1,-1.867999882E-1
1.434353594E1,-2.763999999E-1,2.131999880E-1,-2.004999965E-1
1.435346250E1,-3.378999829E-1,2.257999927E-1,-2.559999935E-2
1.436338906E1,-2.899999917E-1,2.364999950E-1,1.979999989E-1
1.437331562E1,-1.395999938E-1,2.131999880E-1,2.457999885E-1
1.438324219E1,1.559999958E-2,2.081999928E-1,5.709999800E-2
1.439316719E1,1.137999967E-1,1.149999946E-1,-3.370000049E-2
1.440309375E1,3.102000058E-1,1.718000025E-1,-1.175999939E-1
1.441302031E1,3.779999912E-1,1.361999959E-1,-6.610000134E-2
1.442294688E1,3.826999962E-1,1.792999953E-1,-1.509999949E-2
1.443287344E1,3.026999831E-1,1.693999916E-1,1.339999959E-2
1.444280000E1,2.393999994E-1,2.222999930E-1,5.700000003E-2
1.445272500E1,1.244999990E-1,2.286999971E-1,9.250000119E-2
1.446265156E1,1.349999942E-2,2.759999931E-1,2.401999980E-1
1.447257812E1,-8.469999582E-2,3.339999914E-1,3.007999957E-1
1.448250469E1,-1.407999992E-1,3.161000013E-1,3.431999981E-1
1.449243125E1,-2.557999790E-1,4.140999913E-1,2.536999881E-1
1.450235781E1,-3.018999994E-1,4.709999859E-1,1.180999950E-1
1.451228438E1,-2.414999902E-1,4.326999784E-1,-4.209999740E-2
1.452220938E1,-2.525999844E-1,4.196999967E-1,-9.459999949E-2
1.453213594E1,-1.911999881E-1,3.930999935E-1,-8.819999546E-2
1.454206250E1,-5.449999869E-2,3.526999950E-1,-1.831000000E-1
1.455198906E1,2.960000001E-2,3.100999892E-1,-2.451999933E-1
1.456191563E1,9.879999608E-2,3.005000055E-1,-1.473999918E-1
1.457184062E1,1.517999917E-1,2.825999856E-1,-5.629999936E-2
1.458176719E1,1.582999974E-1,1.788999885E-1,5.219999701E-2
1.459169375E1,1.938999891E-1,1.185999960E-1,7.369999588E-2
1.460162031E1,2.173999995E-1,9.030000120E-2,-1.189999934E-2
1.461154688E1,1.753000021E-1,9.179999679E-2,-2.510000020E-2
1.462147344E1,1.030999944E-1,1.151999980E-1,7.829999924E-2
1.463140000E1,-1.609999873E-2,1.282999963E-1,1.149999946E-1
1.464132500E1,-1.278000027E-1,1.507000029E-1,1.435000002E-1
1.465125156E1,-2.240999937E-1,2.221999913E-1,9.969999641E-2
1.466117813E1,-1.539999992E-1,2.633999884E-1,-9.999999747E-5
1.467110469E1,-1.239999980E-1,2.211999893E-1,-1.182999983E-1
1.468103125E1,2.499999944E-3,2.058999985E-1,-1.752000004E-1
1.469095781E1,3.529999778E-2,2.496999949E-1,-7.279999554E-2
1.470088281E1,1.065999940E-1,2.656999826E-1,3.480000049E-2
1.471080938E1,6.409999728E-2,3.157999814E-1,2.108999938E-1
1.472073594E1,8.709999919E-2,3.515999913E-1,2.944000065E-1
1.473066250E1,1.899999916E-3,3.907999992E-1,2.509000003E-1
1.474058906E1,-6.009999663E-2,4.673999846E-1,1.215000004E-1
1.475051562E1,-5.260000005E-2,4.047999978E-1,3.859999776E-2
1.476044063E1,-6.300000101E-2,4.537999928E-1,-5.079999939E-2
1.477036719E1,-3.900000080E-2,4.189999998E-1,-1.052000001E-1
1.478029375E1,-5.799999833E-2,4.122999907E-1,-7.669999450E-2
1.479022031E1,-2.329999954E-2,4.059999883E-1,-8.679999411E-2
1.480014688E1,5.599999800E-3,3.714999855E-1,-1.699999906E-2
1.481007344E1,1.043999940E-1,3.030999899E-1,1.569999903E-1
1.481999844E1,1.864999980E-1,3.085999787E-1,2.712999880E-1
1.482992500E1,2.105000019E-1,2.770999968E-1,2.361999899E-1
1.483985156E1,1.955999881E-1,3.168999851E-1,1.591999978E-1
1.484977812E1,6.819999963E-2,2.989999950E-1,1.096000001E-1
1.485970469E1,-3.269999847E-2,3.048000038E-1,3.409999982E-2
1.486963125E1,-1.271999925E-1,3.615999818E-1,-3.269999847E-2
1.487955625E1,-1.653999984E-1,4.632999897E-1,-8.339999616E-2
1.488948281E1,-1.581999958E-1,3.878999949E-1,-7.229999453E-2
1.489940938E1,-1.174999997E-1,3.601999879E-1,-8.150000125E-2
1.490933594E1,-1.398999989E-1,3.711999953E-1,-1.083999947E-1
1.491926250E1,-4.559999704E-2,3.549999893E-1,-7.750000060E-2
1.492918906E1,-4.089999944E-2,3.619000018E-1,1.179999951E-2
1.493911563E1,-5.959999934E-2,3.195999861E-1,5.599999800E-3
1.494904062E1,-4.289999977E-2,3.677999973E-1,6.639999896E-2
1.495896719E1,6.740000099E-2,3.592000008E-1,9.059999883E-2
1.496889375E1,1.706999987E-1,2.746999860E-1,1.477999985E-1
1.497882031E1,2.494999915E-1,2.578999996E-1,1.096000001E-1
1.498874688E1,2.346999943E-1,2.109999955E-1,-1.359999925E-2
1.499867344E1,9.179999679E-2,2.739999890E-1,6.759999692E-2
1.500860000E1,-1.499999966E-2,2.671000063E-1,4.059999809E-2
1.501852500E1,-5.150000006E-2,3.543999791E-1,1.409999933E-2
1.502845156E1,-8.729999512E-2,3.018999994E-1,-4.690000042E-2
1.503837813E1,-1.197999939E-1,3.588999808E-1,-3.049999848E-2
1.504830469E1,-1.706999987E-1,4.050999880E-1,3.610000014E-2
1.505823125E1,-6.819999963E-2,3.242000043E-1,2.679999918E-2
1.506815625E1,-1.312000006E-1,3.024999797E-1,5.499999970E-3
1.507808281E1,-1.018999964E-1,3.446999788E-1,1.351999938E-1
1.508800938E1,-3.639999777E-2,2.985000014E-1,9.989999980E-2
1.509793594E1,3.219999745E-2,3.587999940E-1,7.599999756E-2
1.510786250E1,2.779999934E-2,2.997999787E-1,-3.839999810E-2
1.511778906E1,2.630000003E-2,2.703999877E-1,-5.879999697E-2
1.512771562E1,1.120999977E-1,2.453999966E-1,-1.177999973E-1
1.513764063E1,2.850000001E-2,2.883000076E-1,-1.241999939E-1
1.514756719E1,1.435000002E-1,2.827999890E-1,-6.469999999E-2
1.515749375E1,1.212999970E-1,2.395999879E-1,-7.490000129E-2
1.516742031E1,3.209999949E-2,2.485999912E-1,9.709999710E-2
1.517734688E1,1.699999906E-2,3.182999790E-1,1.244999990E-1
1.518727344E1,-9.300000034E-3,3.621999919E-1,2.021999955E-1
1.519719844E1,-1.393999904E-1,4.500999749E-1,3.996999860E-1
1.520712500E1,-2.001999915E-1,4.856999815E-1,4.510999918E-1
1.521705156E1,-2.944999933E-1,5.029999614E-1,4.075999856E-1
1.522697812E1,-1.873999983E-1,5.306000113E-1,2.338999957E-1
1.523690469E1,-1.881999969E-1,6.279999614E-1,-7.979999483E-2
1.524683125E1,-4.050000012E-2,5.063999891E-1,-2.375999987E-1
1.525675625E1,-2.840000018E-2,4.936999977E-1,-2.730000019E-1
1.526668438E1,-3.019999899E-2,5.138999820E-1,-2.951000035E-1
1.527661094E1,8.449999988E-2,5.335000157E-1,-2.838999927E-1
1.528653594E1,4.399999976E-3,4.505999982E-1,-2.612999976E-1
1.529646250E1,2.339999937E-2,3.422999978E-1,-2.105999887E-1
1.530638906E1,9.409999847E-2,3.766999841E-1,9.959999472E-2
1.531631563E1,8.100000210E-3,2.917999923E-1,-2.047999948E-1
1.532624219E1,2.187999934E-1,3.172999918E-1,-8.320000023E-2
1.533616875E1,2.793999910E-1,2.750999928E-1,-7.809999585E-2
1.534609375E1,2.039999962E-1,2.264999896E-1,1.078999937E-1
1.535602031E1,1.295000017E-1,2.465999871E-1,2.716000080E-1
1.536594688E1,5.139999837E-2,1.958999932E-1,3.962000012E-1
1.537587188E1,6.699999794E-3,1.675999910E-1,4.122000039E-1
1.538580000E1,5.040000007E-2,2.709999979E-1,3.366999924E-1
1.539572656E1,2.999999851E-4,3.860999942E-1,3.568999767E-1
1.540565156E1,-9.999999311E-4,3.461000025E-1,3.175999820E-1
1.541557813E1,1.539999992E-2,3.643999994E-1,3.709999844E-2
1.542550469E1,4.219999909E-2,3.975999951E-1,-1.759999990E-2
1.543542969E1,5.689999834E-2,4.840999842E-1,-1.118999943E-1
1.544535625E1,-4.519999772E-2,4.396999776E-1,-3.489999846E-2
1.545528281E1,-1.895999908E-1,5.379999876E-1,1.289999951E-2
1.546521094E1,-2.472999990E-1,4.951999784E-1,6.219999865E-2
1.547513594E1,-2.973999977E-1,4.514999986E-1,-4.499999806E-3
1.548506250E1,-1.869999915E-1,4.599999785E-1,-1.909999922E-2
1.549498906E1,-2.579999901E-2,4.291999936E-1,1.119999960E-2
1.550491562E1,1.152999997E-1,3.567999899E-1,-7.109999657E-2
1.551484219E1,1.361999959E-1,3.895999789E-1,-8.399999887E-2
1.552476719E1,1.034999937E-1,2.861999869E-1,-7.959999889E-2
1.553469531E1,2.719999850E-2,2.036999911E-1,-4.279999807E-2
1.554462031E1,4.900000058E-3,1.689999998E-1,-6.709999591E-2
1.555454688E1,-1.829999872E-2,1.658999920E-1,-3.399999812E-2
1.556447188E1,2.499999851E-2,1.334999949E-1,-7.829999924E-2
1.557440000E1,3.889999911E-2,8.869999647E-2,-2.161999941E-1
1.558432656E1,8.240000159E-2,1.314999908E-1,-2.008999884E-1
1.559425156E1,1.062999964E-1,9.849999845E-2,-7.699999958E-2
1.560417812E1,3.599999845E-2,6.619999558E-2,1.699999906E-3
1.561410469E1,8.540000021E-2,1.142999977E-1,8.379999548E-2
1.562403125E1,8.989999443E-2,1.357000023E-1,8.280000091E-2
1.563395625E1,9.829999506E-2,1.203999966E-1,1.423999965E-1
1.564388281E1,1.166999936E-1,1.441999972E-1,1.222999990E-1
1.565380938E1,1.389999967E-2,1.816999912E-1,3.001999855E-1
1.566373750E1,-4.189999774E-2,2.329999954E-1,4.287000000E-1
1.567366406E1,-9.420000017E-2,2.698999941E-1,4.711999893E-1
1.568358906E1,-6.819999963E-2,3.234999776E-1,2.362999916E-1
1.569351563E1,1.609999873E-2,3.416999876E-1,-9.829999506E-2
1.570344219E1,1.989999972E-2,3.097999990E-1,-2.676999867E-1
1.571336719E1,1.026000008E-1,2.964999974E-1,-3.836999834E-1
1.572329375E1,-4.900000058E-3,3.393999934E-1,-1.999999881E-1
1.573322031E1,-5.389999971E-2,3.497999907E-1,5.029999837E-2
1.574314688E1,-4.239999875E-2,3.179000020E-1,1.712999940E-1
1.575307344E1,-4.059999809E-2,3.294999897E-1,1.986999959E-1
1.576300000E1,9.269999713E-2,2.780999839E-1,1.805000007E-1
1.577292656E1,1.343999952E-1,2.182999998E-1,1.322000027E-1
1.578285156E1,1.217999980E-1,2.953999937E-1,1.648999900E-1
1.579277969E1,1.196999997E-1,3.436000049E-1,1.911999881E-1
1.580270469E1,6.669999659E-2,3.594000041E-1,5.949999765E-2
1.581263125E1,-1.589999944E-1,3.783999979E-1,-4.859999940E-2
1.582255625E1,-1.966999918E-1,4.547999799E-1,-1.599999890E-2
1.583248281E1,-7.800000161E-2,4.481000006E-1,-9.929999709E-2
1.584241094E1,-5.249999836E-2,4.375999868E-1,-1.188999936E-1
1.585233594E1,-4.519999772E-2,4.569999874E-1,-1.460999995E-1
1.586226250E1,-1.374000013E-1,3.704999983E-1,-1.594000012E-1
1.587218906E1,-2.360999882E-1,3.229999840E-1,-1.044999957E-1
1.588211562E1,-2.257999927E-1,3.376999795E-1,-3.590000048E-2
1.589204063E1,-1.897999942E-1,2.969999909E-1,4.339999706E-2
1.590196875E1,-1.056999937E-1,2.597000003E-1,9.969999641E-2
1.591189375E1,-3.999999899E-4,2.045999914E-1,1.278000027E-1
1.592182031E1,1.260000020E-1,1.864999980E-1,2.809999883E-2
1.593174688E1,1.555999964E-1,1.345999986E-1,-1.661999971E-1
1.594167344E1,1.359999925E-1,1.294000000E-1,-2.056999952E-1
1.595160000E1,1.002999991E-1,1.143999994E-1,-1.287000030E-1
1.596152656E1,-1.669999957E-2,1.882999986E-1,-1.019999944E-2
1.597145313E1,-9.910000116E-2,1.363999993E-1,2.579999901E-2
1.598137812E1,-2.372999936E-1,1.651999950E-1,-4.059999809E-2
1.599130469E1,-2.188999951E-1,1.463999897E-1,-5.209999904E-2
1.600123125E1,-1.991999894E-1,1.585000008E-1,-1.620000042E-2
1.601115781E1,-6.859999895E-2,1.228999943E-1,1.422999948E-1
1.602108438E1,1.425999999E-1,1.823000014E-1,4.470000044E-2
1.603100938E1,2.063999921E-1,1.228000000E-1,2.669999935E-2
1.604093750E1,2.368000001E-1,1.893000007E-1,-5.709999800E-2
1.605086250E1,2.861000001E-1,1.058999971E-1,-2.075999975E-1
1.606078906E1,2.016000003E-1,1.317999959E-1,-2.579999901E-2
1.607071563E1,1.714999974E-1,1.015999988E-1,2.209999971E-2
1.608064219E1,3.929999843E-2,2.208999991E-1,2.000999898E-1
1.609056875E1,1.279999968E-2,2.360999882E-1,3.552999794E-1
1.610049531E1,1.899999916E-3,2.373999953E-1,4.056999981E-1
1.611042188E1,-1.099999994E-3,2.883000076E-1,3.177999854E-1
1.612034688E1,2.529999986E-2,3.802999854E-1,2.294999957E-1
1.613027344E1,-1.002999991E-1,3.412999809E-1,9.589999914E-2
1.614020000E1,-7.499999553E-2,4.567999840E-1,1.365000010E-1
1.615012656E1,-5.779999867E-2,5.138999820E-1,-4.849999771E-2
1.616005156E1,-1.579999924E-1,5.396000147E-1,-6.049999967E-2
1.616997812E1,-2.090999931E-1,5.432000160E-1,-9.730000049E-2
1.617990469E1,-5.609999970E-2,5.473999977E-1,-8.399999887E-2
1.618983125E1,-3.669999912E-2,5.295000076E-1,-6.159999967E-2
1.619975781E1,-7.100000046E-3,3.895999789E-1,1.869999990E-2
1.620968438E1,3.409999982E-2,4.271999896E-1,7.490000129E-2
1.621961094E1,7.329999655E-2,5.353999734E-1,1.245999932E-1
1.622953594E1,5.649999902E-2,5.375999808E-1,1.396999955E-1
1.623946250E1,3.590000048E-2,5.410999656E-1,1.127000004E-1
1.624938906E1,1.165999994E-1,4.954999983E-1,1.266999990E-1
1.625931562E1,9.339999408E-2,4.372999966E-1,-6.199999712E-3
1.626924219E1,1.769999973E-2,4.651999772E-1,-4.999999702E-2
1.627916875E1,-2.279999852E-2,5.404999852E-1,-5.779999867E-2
1.628909531E1,-1.054999977E-1,5.080999732E-1,-9.099999443E-3
1.629902031E1,-1.550000012E-1,5.541999936E-1,7.859999686E-2
1.630894688E1,-1.743000001E-1,5.346999764E-1,1.001999974E-1
1.631887344E1,-1.485999972E-1,5.554999709E-1,7.499999553E-2
1.632880000E1,-5.749999732E-2,5.595999956E-1,1.403999925E-1
1.633872656E1,-7.039999962E-2,5.949999690E-1,2.081999928E-1
1.634865313E1,-9.059999883E-2,5.898999572E-1,1.445000023E-1
1.635857969E1,-1.319999993E-1,5.361999869E-1,1.370999962E-1
1.636850469E1,-6.239999831E-2,5.293999910E-1,8.100000210E-3
1.637843125E1,2.169999853E-2,4.524999857E-1,1.960000023E-2
1.638835781E1,1.090000011E-2,4.384000003E-1,-8.679999411E-2
1.639828438E1,4.869999737E-2,3.274999857E-1,-1.370000001E-2
1.640821094E1,7.009999454E-2,2.432999909E-1,-3.989999741E-2
1.641813750E1,3.339999914E-2,2.696999907E-1,-8.799999952E-3
1.642806406E1,1.919999905E-2,2.673999965E-1,4.969999939E-2
1.643798906E1,4.089999944E-2,1.859000027E-1,-1.028999984E-1
1.644791562E1,1.169999987E-1,2.192000002E-1,-1.378999949E-1
1.645784219E1,1.656000018E-1,1.425999999E-1,-2.633000016E-1
1.646776875E1,1.375999898E-1,1.561999917E-1,-1.174999997E-1
1.647769531E1,1.114000008E-1,1.019999981E-1,-3.299999982E-3
1.648762188E1,7.899999619E-2,1.481999904E-1,-1.799999923E-2
1.649754688E1,-4.629999772E-2,1.476999968E-1,7.909999788E-2
1.650747344E1,-5.999999866E-2,1.396999955E-1,4.059999809E-2
1.651740000E1,-3.269999847E-2,1.611000001E-1,8.240000159E-2
1.652732656E1,-2.499999851E-2,1.911999881E-1,4.270000011E-2
1.653725312E1,-6.489999592E-2,2.444999963E-1,1.708000004E-1
1.654717969E1,-9.499999881E-2,2.513999939E-1,3.118000031E-1
1.655710625E1,-7.100000046E-3,3.091000021E-1,2.663999796E-1
1.656703125E1,1.389999967E-2,2.881999910E-1,2.008999884E-1
1.657695781E1,8.639999479E-2,3.343999982E-1,7.799999788E-3
1.658688438E1,8.129999787E-2,3.464999795E-1,-6.219999865E-2
1.659681094E1,-3.379999846E-2,4.013999999E-1,-8.639999479E-2
1.660673750E1,-9.899999946E-2,3.273999989E-1,-8.469999582E-2
1.661666406E1,-2.104000002E-1,3.215000033E-1,-5.319999903E-2
1.662658906E1,-1.181999967E-1,3.870999813E-1,-1.620000042E-2
1.663651562E1,-6.140000001E-2,3.280999959E-1,7.349999994E-2
1.664644219E1,1.589999907E-2,3.890999854E-1,1.448999941E-1
1.665636875E1,1.078999937E-1,4.023000002E-1,1.676999927E-1
1.666629531E1,1.429999918E-1,3.826999962E-1,-9.200000204E-3
1.667622188E1,1.136000007E-1,4.010999799E-1,-9.169999510E-2
1.668614844E1,1.198999956E-1,3.500999808E-1,-4.699999839E-2
1.669607344E1,9.079999477E-2,3.185999990E-1,2.309999987E-2
1.670600000E1,2.730000019E-2,3.267000020E-1,1.111999974E-1
1.671592656E1,1.009999961E-2,2.399999946E-1,1.053999960E-1
1.672585312E1,-8.229999989E-2,3.018999994E-1,7.339999825E-2
1.673577969E1,-3.959999979E-2,2.741999924E-1,1.579999924E-2
1.674570625E1,-9.169999510E-2,3.001999855E-1,-1.662999988E-1
1.675563281E1,-1.086999997E-1,3.339999914E-1,-1.664000005E-1
1.676555781E1,-1.062999964E-1,3.096999824E-1,-8.079999685E-2
1.677548438E1,-2.659999952E-2,3.340999782E-1,-6.480000168E-2
1.678541094E1,-7.129999995E-2,3.402999938E-1,8.999999613E-3
1.679533750E1,2.620000020E-2,3.501999974E-1,6.879999489E-2
1.680526406E1,-2.319999970E-2,3.536999822E-1,2.004999965E-1
1.681519062E1,-4.729999974E-2,3.783999979E-1,2.649999857E-1
1.682511563E1,5.639999732E-2,3.953000009E-1,2.322999984E-1
1.683504219E1,4.319999740E-2,4.712999761E-1,1.715999991E-1
1.684496875E1,5.599999800E-3,4.087999761E-1,5.379999802E-2
1.685489531E1,-1.145999953E-1,3.610000014E-1,-4.409999773E-2
1.686482188E1,-1.746999919E-1,4.359999895E-1,-1.237000003E-1
1.687474844E1,-1.809999943E-1,3.725999892E-1,-1.331000030E-1
1.688467500E1,-1.321000010E-1,3.772999942E-1,-1.344999969E-1
1.689460000E1,-7.100000046E-3,2.456000000E-1,-7.710000128E-2
1.690452656E1,4.389999807E-2,2.807999849E-1,-4.899999872E-2
1.691445312E1,5.509999767E-2,2.890000045E-1,5.609999970E-2
1.692437969E1,1.515000015E-1,2.663999796E-1,1.299999934E-2
1.693430625E1,1.441999972E-1,2.463999987E-1,9.999999404E-2
1.694423281E1,1.713999957E-1,2.857999802E-1,8.769999444E-2
1.695415938E1,9.279999882E-2,1.988999993E-1,5.790000036E-2
1.696408438E1,1.559000015E-1,1.877999902E-1,-4.189999774E-2
1.697401094E1,1.555999964E-1,1.869999915E-1,-1.002999991E-1
1.698393750E1,5.849999934E-2,1.749999970E-1,-6.889999658E-2
1.699386250E1,4.509999976E-2,1.445999891E-1,2.659999952E-2
1.700378906E1,-7.299999706E-3,1.631999910E-1,3.749999776E-2
1.701371719E1,-3.460000083E-2,2.316999882E-1,3.819999844E-2
1.702364219E1,-1.909999922E-2,2.333000004E-1,7.279999554E-2
1.703356875E1,-9.979999810E-2,2.838999927E-1,5.739999935E-2
1.704349531E1,-1.240999997E-1,3.238999844E-1,7.229999453E-2
1.705342188E1,-1.548999995E-1,3.263999820E-1,1.269000024E-1
1.706334688E1,-1.588999927E-1,3.199000061E-1,1.001999974E-1
1.707327344E1,-4.719999805E-2,3.726999760E-1,1.314000040E-1
1.708320156E1,8.399999700E-3,3.757999837E-1,7.140000165E-2
1.709312656E1,1.339999959E-2,4.560000002E-1,1.559999958E-2
1.710305313E1,7.449999452E-2,4.642999768E-1,-3.949999809E-2
1.711297812E1,1.074000001E-1,4.913999736E-1,-3.949999809E-2
1.712290469E1,2.099999925E-3,5.185999870E-1,3.240000084E-2
1.713283125E1,-3.309999779E-2,5.088999867E-1,1.289999932E-1
1.714275781E1,-6.449999660E-2,5.113999844E-1,1.984999925E-1
1.715268438E1,-4.369999841E-2,5.855000019E-1,2.296999991E-1
1.716260938E1,-2.549999952E-2,4.335999787E-1,9.409999847E-2
1.717253750E1,-1.429999992E-2,4.957000017E-1,2.469999902E-2
1.718246250E1,-1.118999943E-1,4.794999957E-1,8.439999819E-2
1.719238906E1,-1.032999977E-1,4.623999894E-1,1.055999994E-1
1.720231562E1,-1.201999933E-1,3.933999836E-1,3.779999912E-2
1.721224219E1,-6.449999660E-2,3.526999950E-1,-7.699999958E-2
1.722216875E1,3.539999947E-2,3.394999802E-1,-1.665999889E-1
1.723209531E1,4.079999775E-2,2.911999822E-1,-2.707000077E-1
1.724202188E1,1.354999989E-1,2.224999964E-1,-1.788000017E-1
1.725194688E1,9.039999545E-2,2.718999982E-1,-1.762999892E-1
1.726187344E1,3.319999948E-2,1.772999913E-1,-9.259999543E-2
1.727180156E1,1.288999915E-1,2.026999891E-1,-1.679999940E-2
1.728172656E1,1.737999916E-1,1.620000005E-1,8.999999613E-3
1.729165312E1,2.360999882E-1,1.432999969E-1,1.498999894E-1
1.730157813E1,1.294000000E-1,1.875000000E-1,2.624000013E-1
1.731150625E1,9.759999812E-2,1.851999909E-1,2.685999870E-1
1.732143125E1,3.039999865E-2,2.840999961E-1,3.159999847E-1
1.733135781E1,-8.829999715E-2,3.143999875E-1,2.001999915E-1
1.734128438E1,-1.254999936E-1,4.037999809E-1,2.522000074E-1
1.735121094E1,-1.635999978E-1,3.944000006E-1,2.443999946E-1
1.736113750E1,-2.390999943E-1,4.680999815E-1,5.849999934E-2
1.737106406E1,-2.316000015E-1,3.870999813E-1,-1.369999945E-1
1.738098906E1,-1.409000009E-1,4.116999805E-1,-2.278999984E-1
1.739091562E1,-7.469999790E-2,3.619999886E-1,-2.714999914E-1
1.740084219E1,6.149999797E-2,4.078999758E-1,-2.049999982E-1
1.741076875E1,1.296000034E-1,3.377999961E-1,-1.691000015E-1
1.742069531E1,1.372999996E-1,3.899999857E-1,-3.629999980E-2
1.743062188E1,1.911999881E-1,2.987999916E-1,8.100000024E-2
1.744054844E1,1.252000034E-1,3.375000060E-1,8.299999684E-2
1.745047344E1,-1.669999957E-2,3.874000013E-1,7.169999927E-2
1.746040000E1,-8.909999579E-2,3.310999870E-1,7.509999722E-2
1.747032656E1,-1.605999917E-1,3.249999881E-1,1.446999907E-1
1.748025312E1,-1.568999887E-1,2.793999910E-1,1.537999958E-1
1.749017969E1,-7.679999620E-2,3.808999956E-1,9.099999815E-2
1.750010625E1,-2.080000006E-2,2.832999825E-1,-9.529999644E-2
1.751003125E1,2.559999935E-2,3.319999874E-1,-7.809999585E-2
1.751995781E1,7.140000165E-2,2.895999849E-1,-7.229999453E-2
1.752988438E1,4.659999907E-2,3.245999813E-1,-3.419999778E-2
1.753981094E1,8.119999617E-2,3.019999862E-1,3.790000081E-2
1.754973750E1,9.019999951E-2,3.034999967E-1,1.314000040E-1
1.755966406E1,3.229999915E-2,2.949000001E-1,8.460000157E-2
1.756958906E1,-5.590000004E-2,2.884999812E-1,1.410999894E-1
1.757951719E1,-3.219999745E-2,3.621000051E-1,1.614999920E-1
1.758944219E1,-8.999999845E-4,3.375000060E-1,1.188999936E-1
1.759936875E1,-6.859999895E-2,3.395999968E-1,4.959999770E-2
1.760929531E1,-3.610000014E-2,3.319000006E-1,0.000000000E0
1.761922188E1,1.699999906E-2,2.816999853E-1,-5.779999867E-2
1.762914844E1,7.249999791E-2,3.064000010E-1,-1.354999989E-1
1.763907344E1,7.289999723E-2,2.405999899E-1,-1.950999945E-1
1.764900000E1,7.599999756E-2,2.340999991E-1,-1.737999916E-1
1.765892656E1,4.949999973E-2,2.380999923E-1,-1.223999932E-1
1.766885313E1,-6.899999920E-3,2.157999873E-1,5.619999766E-2
1.767877969E1,-2.659999952E-2,1.772999913E-1,1.825999916E-1
1.768870625E1,-3.260000050E-2,1.996999979E-1,1.695999950E-1
1.769863281E1,9.709999710E-2,1.845999956E-1,1.469999999E-1
1.770855938E1,-2.859999985E-2,1.303000003E-1,3.889999911E-2
1.771848438E1,1.449999958E-2,1.439999938E-1,6.209999695E-2
1.772841094E1,-1.869999990E-2,2.318999916E-1,-4.120000079E-2
1.773833750E1,-1.506000012E-1,1.615999937E-1,-7.189999521E-2
1.774826406E1,-8.079999685E-2,1.895999908E-1,-5.599999800E-3
1.775819062E1,-4.199999943E-2,2.267999947E-1,-6.749999523E-2
1.776811719E1,3.390000015E-2,2.230999917E-1,-6.740000099E-2
1.777804219E1,6.920000166E-2,1.902000010E-1,-1.357000023E-1
1.778796875E1,1.260000002E-2,2.080999911E-1,-2.379999869E-2
1.779789531E1,-3.229999915E-2,2.170999944E-1,9.600000083E-2
1.780782188E1,2.080000006E-2,2.399999946E-1,2.721000016E-1
1.781774844E1,3.280000016E-2,2.635999918E-1,1.977999955E-1
1.782767500E1,7.819999754E-2,3.080999851E-1,8.190000057E-2
1.783760156E1,1.769999973E-2,3.240000010E-1,1.193999946E-1
1.784752812E1,-9.099999443E-3,4.153999984E-1,1.620000042E-2
1.785745313E1,-9.200000018E-2,3.177999854E-1,7.039999962E-2
1.786737969E1,-1.363999993E-1,3.871999979E-1,6.300000101E-2
1.787730625E1,-9.119999409E-2,4.403999746E-1,1.495999992E-1
1.788723281E1,-2.400000021E-2,4.827999771E-1,1.697999984E-1
1.789715938E1,4.959999770E-2,5.062999725E-1,9.489999712E-2
1.790708594E1,2.190000005E-2,4.249999821E-1,-1.516000032E-1
1.791701250E1,8.599999361E-3,4.881999791E-1,-2.272000015E-1
1.792693750E1,3.599999938E-3,4.000999928E-1,-2.805999815E-1
1.793686406E1,4.199999850E-3,4.003999829E-1,-1.835999936E-1
1.794679063E1,-7.289999723E-2,3.744999766E-1,-3.099999856E-3
1.795671719E1,-1.288999915E-1,3.436999917E-1,9.309999645E-2
1.796664375E1,-1.121999994E-1,2.965999842E-1,1.898999959E-1
1.797656875E1,-4.239999875E-2,2.820000052E-1,2.028999925E-1
1.798649531E1,5.350000039E-2,2.771999836E-1,1.015999988E-1
1.799642188E1,1.310999990E-1,2.707000077E-1,6.419999897E-2
1.800634844E1,2.750999928E-1,2.232999951E-1,2.969999984E-2
1.801627500E1,2.445999980E-1,2.404999882E-1,-1.074999943E-1
1.802620156E1,2.000999898E-1,1.780999899E-1,-1.283999979E-1
1.803612812E1,1.590999961E-1,2.276999950E-1,3.920000046E-2
1.804605312E1,-2.389999852E-2,2.403999865E-1,1.943999976E-1
1.805597969E1,-1.767999977E-1,3.529999852E-1,3.572999835E-1
1.806590625E1,-2.741999924E-1,3.710999787E-1,3.121999800E-1
1.807583281E1,-2.728999853E-1,3.921999931E-1,2.131000012E-1
1.808575938E1,-1.393999904E-1,4.483999908E-1,2.239999920E-2
1.809568594E1,-7.669999450E-2,5.281000137E-1,-1.084999964E-1
1.810561250E1,3.519999981E-2,4.742999971E-1,-1.206999943E-1
1.811553750E1,4.499999806E-2,4.453999996E-1,-1.909999996E-1
1.812546406E1,-2.099999972E-2,3.368999958E-1,-1.739999950E-1
1.813539062E1,-2.269999869E-2,3.978999853E-1,-1.160999984E-1
1.814531719E1,1.179999951E-2,2.965999842E-1,4.749999940E-2
1.815524375E1,-1.939999871E-2,3.432999849E-1,5.049999803E-2
1.816517031E1,-4.120000079E-2,3.234999776E-1,3.700000048E-2
1.817509688E1,-3.799999831E-3,2.956999838E-1,7.469999790E-2
1.818502188E1,2.630000003E-2,2.390999943E-1,5.379999802E-2
1.819494844E1,5.810000002E-2,2.484999895E-1,1.750000007E-2
1.820487500E1,6.679999828E-2,2.386000007E-1,6.000000052E-3
1.821480156E1,1.489999890E-1,1.696999967E-1,-8.100000210E-3
1.822472813E1,4.600000009E-2,2.254999876E-1,-1.102999970E-1
1.823465469E1,-4.380000010E-2,1.942999959E-1,-9.499999695E-3
1.824457969E1,-5.559999868E-2,2.440999895E-1,1.083000004E-1
1.825450625E1,3.399999812E-3,2.547000051E-1,9.719999880E-2
1.826443281E1,-1.090000011E-2,2.157000005E-1,3.720000014E-2
1.827435938E1,4.779999703E-2,2.373999953E-1,8.999999845E-4
1.828428594E1,3.249999881E-2,2.777999938E-1,1.439999975E-2
1.829421250E1,-3.999999899E-4,2.678999901E-1,5.389999971E-2
1.830413906E1,5.469999835E-2,2.888999879E-1,1.255999953E-1
1.831406406E1,-6.889999658E-2,3.308999836E-1,1.226999983E-1
1.832399062E1,1.500000013E-3,3.838999867E-1,1.366999894E-1
1.833391719E1,-5.969999731E-2,3.258999884E-1,-3.869999945E-2
1.834384375E1,-6.229999661E-2,3.244999945E-1,-1.109999940E-1
1.835377031E1,1.529999916E-2,3.889999986E-1,-1.407999992E-1
1.836369688E1,4.919999838E-2,3.764999807E-1,7.699999958E-3
1.837362188E1,9.470000118E-2,3.938999772E-1,1.127000004E-1
1.838354844E1,7.429999858E-2,4.255999923E-1,2.118999958E-1
1.839347500E1,1.659999974E-2,4.700999856E-1,2.388999909E-1
1.840340156E1,-1.666999906E-1,4.470999837E-1,1.296999902E-1
1.841332812E1,-8.720000088E-2,4.027999938E-1,8.159999549E-2
1.842325469E1,3.979999945E-2,4.440999925E-1,-6.799999624E-3
1.843317969E1,4.309999943E-2,4.819999933E-1,-4.209999740E-2
1.844310781E1,5.859999731E-2,4.451999962E-1,-2.116999924E-1
1.845303281E1,2.479999885E-2,3.986999989E-1,-1.911000013E-1
1.846295938E1,-5.599999800E-3,3.734000027E-1,-6.329999864E-2
1.847288594E1,1.989999972E-2,3.305999935E-1,2.329999954E-2
1.848281250E1,2.219999954E-2,3.208000064E-1,2.193000019E-1
1.849273750E1,7.979999483E-2,3.267999887E-1,2.994000018E-1
1.850266406E1,1.150000002E-2,3.646000028E-1,2.520000041E-1
1.851259062E1,-9.470000118E-2,4.012999833E-1,1.360999942E-1
1.852251719E1,-3.019999899E-2,3.495000005E-1,5.869999900E-2
1.853244375E1,-2.259999886E-2,3.905999959E-1,-1.789999940E-2
1.854237031E1,0.000000000E0,3.369999826E-1,-1.419000030E-1
1.855229688E1,-2.819999866E-2,3.518999815E-1,-6.599999964E-2
1.856222188E1,-3.799999878E-2,3.477999866E-1,-4.339999706E-2
1.857214844E1,1.289999951E-2,3.847999871E-1,7.789999992E-2
1.858207500E1,-4.059999809E-2,3.853999972E-1,1.606999934E-1
1.859200156E1,6.099999882E-3,3.893999755E-1,1.481000036E-1
1.860192656E1,-3.529999778E-2,3.621999919E-1,4.739999771E-2
1.861185469E1,-1.009999961E-1,3.549999893E-1,1.329999976E-2
1.862177969E1,-5.289999768E-2,3.434999883E-1,-1.041999981E-1
1.863170625E1,-6.939999759E-2,3.764999807E-1,-1.938000023E-1
1.864163281E1,-2.309999987E-2,3.601000011E-1,-1.446999907E-1
1.865155938E1,-6.119999662E-2,2.962999940E-1,-9.730000049E-2
1.866148594E1,-1.895999908E-1,2.127999961E-1,-1.039999947E-1
1.867141250E1,-4.299999774E-2,2.588000000E-1,-4.789999872E-2
1.868133750E1,-2.129999921E-2,2.193000019E-1,2.439999953E-2
1.869126406E1,1.145999953E-1,2.284999937E-1,2.459999919E-2
1.870119063E1,2.179999948E-1,2.274999917E-1,7.090000063E-2
1.871111719E1,1.394999921E-1,1.876999885E-1,3.570000082E-2
1.872104375E1,9.979999810E-2,1.964999884E-1,-5.920000002E-2
1.873097031E1,4.809999838E-2,2.669000030E-1,1.617999971E-1
1.874089531E1,6.089999899E-2,2.906000018E-1,2.290999889E-1
1.875082188E1,5.159999803E-2,2.567999959E-1,2.569999993E-1
1.876074844E1,3.260000050E-2,3.019999862E-1,1.766999960E-1
1.877067500E1,4.910000041E-2,3.303000033E-1,1.037999988E-1
1.878060156E1,-6.650000066E-2,3.255999982E-1,9.089999646E-2
1.879052812E1,-1.004999951E-1,3.680999875E-1,8.749999851E-2
1.880045312E1,-4.230000079E-2,3.894999921E-1,9.049999714E-2
1.881037969E1,2.410000004E-2,3.912999928E-1,6.340000033E-2
1.882030625E1,1.539999992E-2,3.215000033E-1,-6.300000101E-2
1.883023281E1,-8.129999787E-2,3.181999922E-1,-9.999999404E-2
1.884015938E1,-1.430999935E-1,3.353999853E-1,-7.599999662E-3
1.885008594E1,-6.929999590E-2,3.615999818E-1,-3.599999938E-3
1.886001250E1,-5.689999834E-2,3.386999965E-1,-4.100000020E-3
1.886993750E1,-3.680000082E-2,3.552999794E-1,-9.299999475E-2
1.887986406E1,3.539999947E-2,3.628999889E-1,-6.749999523E-2
1.888979062E1,1.420000009E-2,3.290999830E-1,-7.729999721E-2
1.889971719E1,2.029999904E-2,3.637000024E-1,-8.919999748E-2
1.890964375E1,1.056999937E-1,3.515999913E-1,6.309999526E-2
1.891957031E1,1.171000004E-1,4.208999872E-1,1.354999989E-1
1.892949688E1,1.225999966E-1,3.147999942E-1,1.497000009E-1
1.893942188E1,1.246999949E-1,3.488000035E-1,2.014999986E-1
1.894934844E1,9.369999915E-2,3.856000006E-1,1.719999909E-1
1.895927500E1,-5.469999835E-2,4.017999768E-1,1.658999920E-1
1.896920156E1,-2.300000004E-2,4.074999988E-1,1.403999925E-1
1.897912813E1,-3.680000082E-2,4.303999841E-1,3.999999911E-2
1.898905469E1,-1.970000006E-2,4.592999816E-1,-3.469999880E-2
1.899898125E1,-3.669999912E-2,4.397999942E-1,4.069999978E-2
1.900890625E1,-5.469999835E-2,5.256999731E-1,2.799999900E-3
1.901883281E1,-1.074000001E-1,4.640999734E-1,2.809999883E-2
1.902875938E1,-1.469999999E-1,5.224999785E-1,7.289999723E-2
1.903868594E1,-1.222999990E-1,4.650999904E-1,6.199999899E-2
1.904861250E1,-1.565999985E-1,3.763999939E-1,2.489999868E-2
1.905853906E1,-1.216999963E-1,3.564999998E-1,-4.779999703E-2
1.906846406E1,-5.829999968E-2,3.569999933E-1,1.640000008E-2
1.907839062E1,-4.649999738E-2,3.060999811E-1,-4.399999976E-2
1.908831719E1,5.049999803E-2,2.640999854E-1,-3.159999847E-2
1.909824375E1,6.329999864E-2,2.996000051E-1,-4.609999806E-2
1.910817031E1,9.619999677E-2,2.861000001E-1,-8.379999548E-2
1.911809531E1,5.680000037E-2,1.914999932E-1,-1.455999911E-1
1.912802344E1,7.009999454E-2,2.243999988E-1,-1.741999984E-1
1.913794844E1,1.009999961E-2,1.791999936E-1,-1.714999974E-1
1.914787500E1,2.659999952E-2,1.658999920E-1,-1.339999959E-2
1.915780156E1,5.659999698E-2,1.938000023E-1,9.499999881E-2
1.916772812E1,8.280000091E-2,1.255999953E-1,1.221999973E-1
1.917765469E1,1.429999992E-2,2.081999928E-1,2.412000000E-1
1.918758125E1,5.199999735E-2,2.836999893E-1,2.312999964E-1
1.919750781E1,4.470000044E-2,2.317999899E-1,1.932999939E-1
1.920743281E1,-3.999999724E-3,3.077999949E-1,1.798999906E-1
1.921735938E1,1.359999925E-2,3.048000038E-1,9.119999409E-2
1.922728594E1,-4.710000008E-2,4.235999882E-1,-2.799999900E-2
1.923721250E1,-1.228000000E-1,4.452999830E-1,7.959999889E-2
1.924713906E1,-8.699999750E-2,4.251999855E-1,-1.300000004E-3
1.925706563E1,-1.064999998E-1,4.231999815E-1,1.599999960E-3
1.926699063E1,-4.779999703E-2,4.994999766E-1,-1.599999960E-3
1.927691719E1,2.769999951E-2,4.612999856E-1,4.069999978E-2
1.928684375E1,3.179999813E-2,4.503999949E-1,8.940000087E-2
1.929677031E1,1.132999957E-1,4.602999985E-1,7.469999790E-2
1.930669688E1,5.999999866E-2,4.389999807E-1,-2.960000001E-2
1.931662344E1,4.589999840E-2,4.967999756E-1,-2.219999954E-2
1.932655000E1,3.929999843E-2,4.350000024E-1,-6.149999797E-2
1.933647500E1,-6.419999897E-2,4.016000032E-1,-5.680000037E-2
1.934640156E1,-8.879999816E-2,4.250999987E-1,-1.332999915E-1
1.935632812E1,-8.399999887E-2,4.122999907E-1,-4.519999772E-2
1.936625469E1,-5.559999868E-2,4.099999964E-1,8.799999952E-3
1.937618125E1,-1.499999911E-1,3.026999831E-1,1.010999978E-1
1.938610781E1,-1.697999984E-1,3.457999825E-1,2.333999872E-1
1.939603281E1,-1.441999972E-1,3.436000049E-1,2.257999927E-1
1.940595938E1,-1.085999981E-1,3.217999935E-1,1.504999995E-1
1.941588594E1,1.699999906E-3,3.953999877E-1,-1.310000010E-2
1.942581250E1,1.156999990E-1,3.716999888E-1,-2.689000070E-1
1.943573906E1,2.294999957E-1,4.421999753E-1,-1.744000018E-1
1.944566562E1,1.773999929E-1,3.653999865E-1,-8.919999748E-2
1.945559219E1,1.967999935E-1,3.188000023E-1,-2.369999886E-2
1.946551719E1,5.639999732E-2,3.563999832E-1,1.853999943E-1
1.947544375E1,-7.779999822E-2,2.447999865E-1,3.148999810E-1
1.948537031E1,-6.229999661E-2,3.109000027E-1,2.653999925E-1
1.949529688E1,-7.649999857E-2,2.809000015E-1,2.344999909E-1
1.950522344E1,-5.419999734E-2,2.590000033E-1,6.300000008E-3
1.951515000E1,-3.339999914E-2,3.181000054E-1,-1.695999950E-1
1.952507656E1,1.815999895E-1,2.412999868E-1,-2.691999972E-1
1.953500156E1,4.879999906E-2,2.620999813E-1,-2.245000005E-1
1.954492656E1,-3.509999812E-2,2.217999995E-1,-2.353999913E-1
1.955485469E1,4.209999740E-2,2.069000006E-1,1.319999993E-2
1.956478125E1,9.499999695E-3,2.048999965E-1,8.199999481E-2
1.957470781E1,5.049999803E-2,2.064999938E-1,1.648999900E-1
1.958463438E1,7.400000002E-3,2.691999972E-1,2.254999876E-1
1.959455938E1,4.349999875E-2,2.472999990E-1,2.032999992E-1
1.960448594E1,8.399999700E-3,3.534999788E-1,2.654999793E-1
1.961441250E1,-5.099999718E-3,3.328999877E-1,2.022999972E-1
1.962433906E1,-1.058999971E-1,3.508999944E-1,1.627999991E-1
1.963426562E1,-1.582999974E-1,4.661999941E-1,1.557999998E-1
1.964419219E1,-1.964999884E-1,4.025000036E-1,4.879999906E-2
1.965411875E1,-1.245999932E-1,4.193999767E-1,-1.360999942E-1
1.966404375E1,-1.201999933E-1,4.547999799E-1,-1.379999965E-1
1.967397031E1,-1.110999957E-1,4.092999995E-1,-1.720999926E-1
1.968389688E1,1.019999944E-2,3.806999922E-1,-1.608999968E-1
1.969382344E1,3.649999946E-2,3.208000064E-1,-2.324000001E-1
1.970375000E1,9.049999714E-2,3.341999948E-1,-1.168999970E-1
1.971367656E1,1.577999890E-1,3.181000054E-1,-6.629999727E-2
1.972360156E1,1.685999930E-1,3.332999945E-1,1.569999941E-2
1.973352813E1,2.047999948E-1,2.730000019E-1,1.282999963E-1
1.974345469E1,1.525000036E-1,2.475999892E-1,2.536000013E-1
1.975338125E1,1.154999956E-1,2.342999876E-1,2.768000066E-1
1.976330781E1,7.000000030E-2,2.524999976E-1,2.280000001E-1
1.977323438E1,5.549999699E-2,2.903999984E-1,1.220999956E-1
1.978316094E1,-5.199999735E-2,3.743999898E-1,3.549999744E-2
1.979308594E1,-1.172999963E-1,3.173999786E-1,2.339999937E-2
1.980301250E1,-1.339000016E-1,4.438999891E-1,9.300000034E-3
1.981293906E1,-2.168999910E-1,4.226000011E-1,3.150000051E-2
1.982286563E1,-1.930999905E-1,4.032999873E-1,7.889999449E-2
1.983279219E1,-2.483999878E-1,4.256999791E-1,9.449999779E-2
1.984271875E1,-2.274999917E-1,4.069999754E-1,-1.979999989E-2
1.985264375E1,-1.863999963E-1,3.976999819E-1,-1.002999991E-1
