"Time (s)","Acceleration x (m/s^2)","Acceleration y (m/s^2)","Acceleration z (m/s^2)"
0.000000000E0,-7.919636369E-1,9.791384697E0,1.344689012E0
4.964063000E-3,-7.369257212E-1,9.824884415E0,1.758646488E0
9.926563000E-3,-6.196768880E-1,9.879913330E0,1.911779642E0
1.489062500E-2,-6.364266872E-1,9.865556717E0,1.902212381E0
1.985312500E-2,-6.340420246E-1,9.927767754E0,1.763425350E0
2.481718800E-2,-4.761109650E-1,9.937344551E0,1.641397715E0
2.977968800E-2,-3.851887584E-1,9.906239510E0,1.548071623E0
3.474218800E-2,-2.607572973E-1,9.860768318E0,1.555254221E0
3.970625000E-2,-3.181893826E-1,9.836845398E0,1.658147454E0
4.466875000E-2,-3.660447001E-1,9.822490692E0,1.650964856E0
4.963281300E-2,-4.258614480E-1,9.855990410E0,1.552860141E0
5.459531300E-2,-5.167931914E-1,9.879913330E0,1.466716647E0
5.955937500E-2,-5.311488509E-1,9.853595734E0,1.457149386E0
6.452187500E-2,-5.622543097E-1,9.918201447E0,1.284862638E0
6.948437500E-2,-5.837925673E-1,9.872738838E0,1.150864005E0
7.444843800E-2,-6.483976841E-1,9.867951393E0,1.198719382E0
7.941093800E-2,-6.053212285E-1,9.865556717E0,1.110191226E0
8.437500000E-2,-5.455045104E-1,9.891883850E0,1.112575889E0
8.933750000E-2,-7.704253793E-1,9.853595734E0,1.184363604E0
9.430156300E-2,-1.074316621E0,9.671741486E0,1.390150189E0
9.926406300E-2,-3.014395833E-1,9.946911812E0,7.273392677E-1
1.042265630E-1,-3.708235621E-1,9.985199928E0,7.823676467E-1
1.091906250E-1,-6.914646029E-1,9.918201447E0,8.493670225E-1
1.141531250E-1,-1.045605302E0,9.662164688E0,1.181969523E0
1.191171880E-1,-1.074316621E0,9.777029037E0,1.686858773E0
1.240796880E-1,-9.307506680E-1,9.927767754E0,1.473899245E0
1.290421880E-1,-7.728195786E-1,9.781807899E0,1.483466506E0
1.340062500E-1,-8.182806969E-1,9.647809982E0,1.414072990E0
1.389687500E-1,-8.828954101E-1,9.556886673E0,1.323150754E0
1.439328130E-1,-9.953558445E-1,9.542531013E0,1.131719947E0
1.488953130E-1,-7.345410585E-1,9.604742050E0,1.146075726E0
1.538593750E-1,-6.196768880E-1,9.604742050E0,1.158046603E0
1.588218750E-1,-5.407160521E-1,9.602347374E0,1.397323132E0
1.637859380E-1,-5.790041685E-1,9.616703987E0,1.469110847E0
1.687484380E-1,-5.646485090E-1,9.669347763E0,1.665320516E0
1.737109380E-1,-4.426112771E-1,9.707635880E0,1.820857406E0
1.786750000E-1,-3.014395833E-1,9.652597427E0,1.868712783E0
1.836375000E-1,-1.985463500E-1,9.645415306E0,2.000317335E0
1.886015630E-1,-1.770081222E-1,9.626279831E0,2.155854225E0
1.935640630E-1,-1.435084492E-1,9.616703987E0,2.189353704E0
1.985281250E-1,8.620083332E-2,9.609530449E0,2.273102999E0
2.034906250E-1,2.584780157E-1,9.559281349E0,2.340102196E0
2.084546880E-1,4.498992264E-1,9.619097710E0,2.172604084E0
2.134171880E-1,4.259763658E-1,9.666953087E0,1.830424666E0
2.183812500E-1,3.039391041E-1,9.688490868E0,1.567215681E0
2.233437500E-1,3.972555101E-1,9.676529884E0,1.658147454E0
2.283062500E-1,4.163995683E-1,9.678915024E0,1.792146087E0
2.332703130E-1,3.805056810E-1,9.738740921E0,1.971606016E0
2.382328130E-1,1.436233670E-1,9.779414177E0,2.122354507E0
2.431953130E-1,8.859504014E-2,9.872738838E0,2.246776342E0
2.481593750E-1,3.116292879E-2,9.860768318E0,2.112777472E0
2.531218750E-1,2.398990095E-2,9.731558800E0,2.110383511E0
2.580859380E-1,-1.578640938E-1,9.887095451E0,2.163027048E0
2.630484380E-1,-1.387200505E-1,9.894268990E0,1.945279241E0
2.680109380E-1,-2.751129270E-1,9.944517136E0,1.974000096E0
2.729750000E-1,-3.110068142E-1,9.812912941E0,1.954856038E0
2.779375000E-1,-5.072164536E-1,9.999555588E0,1.720358372E0
2.829015630E-1,-5.550717115E-1,9.858384132E0,1.452361107E0
2.878640630E-1,-7.369257212E-1,9.899056435E0,1.452361107E0
2.928281250E-1,-8.589629531E-1,9.911018372E0,1.648570657E0
2.977906250E-1,-9.666445851E-1,9.877518654E0,1.658147454E0
3.027531250E-1,-1.342314005E0,1.002109337E1,1.344689012E0
3.077171880E-1,-8.541745543E-1,9.994767189E0,1.409294248E0
3.126796880E-1,-6.244652867E-1,1.001870060E1,1.488254905E0
3.176437500E-1,-5.861771703E-1,1.003305531E1,1.725146890E0
3.226062500E-1,-5.024375916E-1,9.925383568E0,2.002711535E0
3.275687500E-1,-4.282556474E-1,9.851201057E0,2.151065588E0
3.325328130E-1,-3.253624141E-1,9.772240639E0,2.222853422E0
3.374953130E-1,-2.775071263E-1,9.745914459E0,2.191748142E0
3.424593750E-1,-8.369170874E-2,9.796163559E0,2.086460590E0
3.474218750E-1,-3.583640978E-2,9.774634361E0,2.029028416E0
3.523859380E-1,-3.104800731E-2,9.800951958E0,1.974000096E0
3.573484380E-1,-3.344221041E-2,9.822490692E0,2.000317335E0
3.623109380E-1,-5.975927413E-2,9.894268990E0,2.009884357E0
3.672750000E-1,-1.004415527E-1,9.844018936E0,2.036211014E0
3.722375000E-1,2.159569971E-2,9.812912941E0,2.043384075E0
3.772015630E-1,9.815269709E-2,9.710029602E0,2.050566673E0
3.821640630E-1,1.914786696E-1,9.561666489E0,2.045778275E0
3.871281250E-1,3.972555101E-1,9.425282478E0,1.914173841E0
3.920906250E-1,4.546876252E-1,9.284101486E0,1.938106298E0
3.970546880E-1,5.073313117E-1,9.336745262E0,1.969211817E0
4.020171880E-1,4.762258530E-1,9.394176483E0,1.933317900E0
4.069796880E-1,4.331493974E-1,9.355888367E0,1.993134618E0
4.119437500E-1,3.685442507E-1,9.386994362E0,2.005105495E0
4.169062500E-1,2.871892750E-1,9.415705681E0,1.954856038E0
4.218703130E-1,2.273725420E-1,9.544916153E0,1.985961556E0
4.268328130E-1,1.388349682E-1,9.659780502E0,1.923750639E0
4.317953130E-1,5.988377333E-2,9.774634361E0,1.813674808E0
4.367593750E-1,-1.004415527E-1,9.805740356E0,1.610292196E0
4.417218750E-1,-1.961521655E-1,9.786596298E0,1.528927565E0
4.466859380E-1,-1.961521655E-1,9.786596298E0,1.438005328E0
4.516484380E-1,-1.124029830E-1,9.786596298E0,1.583965540E0
4.566125000E-1,1.005468965E-1,9.791384697E0,1.622253656E0
4.615750000E-1,2.608722150E-1,9.762663841E0,1.660541654E0
4.665375000E-1,3.302561939E-1,9.786596298E0,1.761031151E0
4.715015630E-1,3.230831623E-1,9.724386215E0,1.895029783E0
4.764640630E-1,4.546876252E-1,9.638241768E0,1.942894697E0
4.814265630E-1,4.618606567E-1,9.628664970E0,2.026634216E0
4.863906250E-1,3.852941096E-1,9.587991714E0,2.088854790E0
4.913531250E-1,3.757268786E-1,9.537743568E0,1.997923017E0
4.963171880E-1,3.326503932E-1,9.525781631E0,1.878279924E0
5.012796880E-1,3.254773617E-1,9.568848610E0,1.792146087E0
5.062437500E-1,2.704394460E-1,9.631059647E0,1.811280608E0
5.112062500E-1,1.842960715E-1,9.657385826E0,1.787357807E0
5.161687500E-1,1.053352952E-1,9.633453369E0,1.753858089E0
5.211328130E-1,3.116292879E-2,9.659780502E0,1.847174406E0
5.260968750E-1,-1.190397050E-2,9.688490868E0,1.859145522E0
5.310593750E-1,-4.721365869E-3,9.676529884E0,1.911779642E0
5.360218750E-1,-9.325893968E-2,9.686098099E0,1.851962924E0
5.409843750E-1,-1.578640938E-1,9.686098099E0,1.832818866E0
5.459484380E-1,-2.487958670E-1,9.643030167E0,1.722752571E0
5.509125000E-1,-3.110068142E-1,9.621492386E0,1.655753255E0
5.558750000E-1,-4.139000177E-1,9.695664406E0,1.682070255E0
5.608390630E-1,-4.210730195E-1,9.695664406E0,1.629426599E0
5.658000000E-1,-4.043232203E-1,9.590386391E0,1.804107547E0
5.707640630E-1,-4.497938752E-1,9.449205399E0,2.045778275E0
5.757265630E-1,-3.564679027E-1,9.264957428E0,2.311381578E0
5.806906250E-1,-2.296518236E-1,9.430061340E0,2.165421486E0
5.856546880E-1,-2.440074682E-1,9.530560493E0,1.749069691E0
5.906171880E-1,-4.928607643E-1,9.745914459E0,1.382967472E0
5.955796880E-1,-6.818974018E-1,9.841633797E0,1.359044671E0
6.005437500E-1,-7.680407763E-1,9.779414177E0,1.119758487E0
6.055078130E-1,-7.847905755E-1,9.786596298E0,1.043192029E0
6.104703130E-1,-8.972510099E-1,9.753096581E0,9.570485950E-1
6.154328130E-1,-8.350304961E-1,9.812912941E0,9.690100551E-1
6.203968750E-1,-7.991462350E-1,9.884700775E0,1.055153489E0
6.253593750E-1,-8.661455512E-1,9.846412659E0,1.134114146E0
6.303234380E-1,-6.651475430E-1,9.803345680E0,1.248968840E0
6.352859380E-1,-5.622543097E-1,9.784202576E0,1.502610564E0
6.402484380E-1,-5.311488509E-1,9.781807899E0,1.689252973E0
6.452125000E-1,-5.335431099E-1,9.834450722E0,1.868712783E0
6.501750000E-1,-6.196768880E-1,9.946911812E0,1.777781010E0
6.551390630E-1,-6.125038266E-1,9.992383003E0,1.820857406E0
6.601015630E-1,-5.335431099E-1,1.001630592E1,1.715570092E0
6.650640630E-1,-4.258614480E-1,9.930162430E0,1.634215117E0
6.700281250E-1,-1.865849346E-1,9.855990410E0,1.552860141E0
6.749906250E-1,-9.086474776E-2,9.827268600E0,1.490649223E0
6.799546880E-1,-4.061523825E-2,9.796163559E0,1.545677543E0
6.849171880E-1,1.920149848E-2,9.853595734E0,1.476293445E0
6.898812500E-1,6.705679744E-2,9.829663277E0,1.572004199E0
6.948437500E-1,4.845864139E-3,9.889489174E0,1.505004764E0
6.998078130E-1,-4.061523825E-2,9.875133514E0,1.536110282E0
7.047703130E-1,-6.933607906E-2,9.817702293E0,1.588753939E0
7.097328130E-1,-1.124029830E-1,9.779414177E0,1.569609880E0
7.146953130E-1,-1.889695525E-1,9.820096016E0,1.624647856E0
7.196593750E-1,-2.775071263E-1,9.901451111E0,1.629426599E0
7.246234380E-1,-2.990453839E-1,9.903844833E0,1.706002831E0
7.295859380E-1,-3.492948711E-1,9.913412094E0,1.662926316E0
7.345500000E-1,-3.564679027E-1,9.822490692E0,1.622253656E0
7.395125000E-1,-2.751129270E-1,9.793779373E0,1.514572024E0
7.444750000E-1,-1.913637519E-1,9.774634361E0,1.629426599E0
7.494390630E-1,-5.736507475E-2,9.834450722E0,1.720358372E0
7.544015630E-1,2.451662440E-3,9.860768318E0,1.722752571E0
7.593656250E-1,4.073973373E-2,9.815307617E0,1.737108231E0
7.643281250E-1,4.552813992E-2,9.803345680E0,1.777781010E0
7.692906250E-1,5.030696467E-2,9.827268600E0,1.837607265E0
7.742546880E-1,4.845864139E-3,9.719596863E0,1.856751323E0
7.792171880E-1,1.680729724E-2,9.678915024E0,1.722752571E0
7.841812500E-1,1.202846877E-2,9.640635490E0,1.679676175E0
7.891437500E-1,5.748957023E-2,9.614309311E0,1.533716083E0
7.941078130E-1,7.423940301E-2,9.561666489E0,1.478678107E0
7.990703130E-1,5.509537086E-2,9.537743568E0,1.380573392E0
8.040328130E-1,1.938728839E-1,9.571242332E0,1.490649223E0
8.089968750E-1,3.446213901E-1,9.511416435E0,1.497822165E0
8.139593750E-1,4.187937677E-1,9.465954781E0,1.629426599E0
8.189218750E-1,3.374387920E-1,9.418099403E0,1.706002831E0
8.238859380E-1,3.278715611E-1,9.339139938E0,1.761031151E0
8.288500000E-1,1.460079998E-1,9.372638702E0,1.725146890E0
8.338125000E-1,-5.975927413E-2,9.461176872E0,1.574398279E0
8.387750000E-1,-1.435084492E-1,9.497060776E0,1.552860141E0
8.437390630E-1,-2.870743573E-1,9.547310829E0,1.461928368E0
8.487015630E-1,-3.708235621E-1,9.611914635E0,1.382967472E0
8.536640630E-1,-5.215719938E-1,9.676529884E0,1.327939153E0
8.586265630E-1,-6.196768880E-1,9.741134644E0,1.335112214E0
8.635906250E-1,-7.034260035E-1,9.867951393E0,1.330323815E0
8.685531250E-1,-7.417141199E-1,9.915806770E0,1.449966788E0
8.735171880E-1,-8.158960342E-1,9.985199928E0,1.394928932E0
8.784796880E-1,-8.757127523E-1,9.980412483E0,1.411678791E0
8.834421880E-1,-9.762117863E-1,1.003784370E1,1.308795214E0
8.884062500E-1,-1.002528906E0,1.004741096E1,1.184363604E0
8.933687500E-1,-8.900684118E-1,1.012876606E1,1.083864689E0
8.983328130E-1,-5.909655690E-1,1.028669739E1,7.991175056E-1
9.032953130E-1,-2.775071263E-1,1.033455276E1,1.913446039E-1
9.082593750E-1,-2.176903933E-1,1.023644733E1,1.578449309E-1
9.132218750E-1,-4.330440462E-1,1.003784370E1,9.044048786E-1
9.181843750E-1,-4.880723953E-1,9.997160912E0,1.885462523E0
9.231484380E-1,-3.205740452E-1,1.000434399E1,2.598522902E0
9.281109380E-1,-8.369170874E-2,1.013834286E1,2.876087427E0
9.330750000E-1,2.536896169E-1,9.994767189E0,2.507600546E0
9.380375000E-1,3.685442507E-1,9.949306488E0,2.012278795E0
9.430015630E-1,2.847950757E-1,9.867951393E0,1.471505165E0
9.479640630E-1,3.613712192E-1,9.784202576E0,1.201113582E0
9.529281250E-1,3.924766779E-1,9.788990021E0,1.318362474E0
9.578921880E-1,2.991507351E-1,9.719596863E0,1.603109598E0
9.628531250E-1,2.776220441E-1,9.647809982E0,1.768213749E0
9.678171880E-1,2.608722150E-1,9.602347374E0,1.753858089E0
9.727796880E-1,2.560837865E-1,9.587991714E0,1.679676175E0
9.777437500E-1,3.159005344E-1,9.578415871E0,1.627041936E0
9.827062500E-1,3.350445926E-1,9.609530449E0,1.528927565E0
9.876687500E-1,2.489012182E-1,9.604742050E0,1.610292196E0
9.926328130E-1,1.771230400E-1,9.583204269E0,1.591148138E0
9.975968750E-1,1.029410958E-1,9.587991714E0,1.536110282E0
1.002559375E0,4.552813992E-2,9.657385826E0,1.550465822E0
1.007521875E0,-4.540364072E-2,9.669347763E0,1.414072990E0
1.012484375E0,-9.804734588E-2,9.702846527E0,1.323150754E0
1.017448438E0,-1.674408913E-1,9.604742050E0,1.177190661E0
1.022410938E0,-1.794023216E-1,9.654992104E0,1.150864005E0
1.027375000E0,-1.411142498E-1,9.659780502E0,1.126941204E0
1.032337500E0,-7.890331000E-2,9.619097710E0,1.213074923E0
1.037301563E0,-5.736507475E-2,9.647809982E0,1.248968840E0
1.042265625E0,9.634267539E-3,9.585598946E0,1.292045236E0
1.047226563E0,5.270116776E-2,9.585598946E0,1.299218416E0
1.052190625E0,6.227797270E-2,9.573637009E0,1.315968156E0
1.057153125E0,7.423940301E-2,9.621492386E0,1.344689012E0
1.062118750E0,1.531905979E-1,9.621492386E0,1.490649223E0
1.067081250E0,-7.172070444E-2,9.762663841E0,1.509793162E0
1.072043750E0,-2.057193965E-1,9.791384697E0,1.562427282E0
1.077007813E0,-2.799013257E-1,9.867951393E0,1.622253656E0
1.081998438E0,-3.612563312E-1,9.781807899E0,1.471505165E0
1.086932813E0,-3.804003298E-1,9.760279655E0,1.471505165E0
1.091895313E0,-3.612563312E-1,9.736346245E0,1.256151438E0
1.096859375E0,-2.918627560E-1,9.748308182E0,1.181969523E0
1.101821875E0,-1.578640938E-1,9.872738838E0,1.052759290E0
1.106785938E0,-1.698351055E-1,9.808135033E0,1.114970207E0
1.111748438E0,-1.961521655E-1,9.894268990E0,1.339900613E0
1.116710938E0,-3.205740452E-1,9.879913330E0,1.624647856E0
1.121675000E0,-3.564679027E-1,9.978017807E0,1.710781574E0
1.126637500E0,-3.397180736E-1,1.004023838E1,1.588753939E0
1.131601563E0,-3.612563312E-1,1.003066158E1,1.447572589E0
1.136564063E0,-3.397180736E-1,9.934949875E0,1.356650352E0
1.141528125E0,-4.306498468E-1,9.844018936E0,1.232218981E0
1.146490625E0,-3.875733614E-1,9.772240639E0,1.198719382E0
1.151453125E0,-3.157951832E-1,9.719596863E0,1.162825465E0
1.156417188E0,-2.942569554E-1,9.738740921E0,1.153258204E0
1.161379688E0,-1.698351055E-1,9.757884979E0,1.088653088E0
1.166343750E0,-6.933607906E-2,9.743529320E0,1.129325747E0
1.171306250E0,5.270116776E-2,9.719596863E0,1.136508465E0
1.176270313E0,1.316523552E-1,9.595166206E0,1.100614548E0
1.181232813E0,1.795076579E-1,9.561666489E0,1.179575324E0
1.186195313E0,2.201899439E-1,9.537743568E0,1.153258204E0
1.191159375E0,1.699404269E-1,9.547310829E0,1.150864005E0
1.196121875E0,1.268735379E-1,9.564060211E0,1.105402946E0
1.201085938E0,1.220851392E-1,9.571242332E0,1.103008628E0
1.206048438E0,1.005468965E-1,9.587991714E0,1.203507662E0
1.211012500E0,1.531905979E-1,9.623887062E0,1.215469122E0
1.215975000E0,1.029410958E-1,9.745914459E0,1.330323815E0
1.220937500E0,4.845864139E-3,9.800951958E0,1.320756555E0
1.225901563E0,-7.890331000E-2,9.848807335E0,1.380573392E0
1.230864063E0,-7.890331000E-2,9.848807335E0,1.526543021E0
1.235828125E0,-6.215347722E-2,9.815307617E0,1.655753255E0
1.240792188E0,9.576806426E-2,9.815307617E0,1.655753255E0
1.245754688E0,1.029410958E-1,9.822490692E0,1.768213749E0
1.250718750E0,6.945100427E-2,9.932557106E0,1.806501865E0
1.255681250E0,5.988377333E-2,1.007851696E1,1.799319267E0
1.260643750E0,-3.104800731E-2,1.008569908E1,1.777781010E0
1.265606250E0,4.845864139E-3,1.012159252E1,1.921356440E0
1.270570313E0,7.184520364E-2,1.005938148E1,1.935711980E0
1.275532813E0,1.005468965E-1,1.002348804E1,1.976384759E0
1.280496875E0,8.141243458E-2,9.920595169E0,1.878279924E0
1.285459375E0,8.859504014E-2,9.889489174E0,1.734714150E0
1.290421875E0,8.620083332E-2,9.822490692E0,1.538504362E0
1.295385938E0,1.388349682E-1,9.755491257E0,1.342294812E0
1.300348438E0,2.800066769E-1,9.748308182E0,1.244190097E0
1.305312500E0,3.182947338E-1,9.822490692E0,1.196325064E0
1.310275000E0,2.776220441E-1,9.786596298E0,1.174796462E0
1.315239063E0,3.757268786E-1,9.743529320E0,1.174796462E0
1.320201563E0,2.680452466E-1,9.729164124E0,1.246574640E0
1.325164063E0,3.015449345E-1,9.693280220E0,1.277689695E0
1.330128125E0,2.632568479E-1,9.700452805E0,1.315968156E0
1.335090625E0,2.536896169E-1,9.729164124E0,1.275295496E0
1.340054688E0,1.962575018E-1,9.693280220E0,1.347073555E0
1.345018750E0,1.651520431E-1,9.738740921E0,1.323150754E0
1.349981250E0,-5.258624628E-2,9.822490692E0,1.347073555E0
1.354943750E0,-6.694187969E-2,9.865556717E0,1.409294248E0
1.359906250E0,-8.608591557E-2,9.927767754E0,1.464322567E0
1.364870313E0,-2.392190546E-1,9.901451111E0,1.512177706E0
1.369832813E0,-4.186884165E-1,9.968450546E0,1.488254905E0
1.374795313E0,-5.167931914E-1,9.973237991E0,1.526543021E0
1.379759375E0,-5.933598280E-1,9.853595734E0,1.493043303E0
1.384721875E0,-5.837925673E-1,9.666953087E0,1.686858773E0
1.389685938E0,-4.043232203E-1,1.014791012E1,1.617465258E0
1.394648438E0,-3.301508427E-1,1.034412003E1,1.126941204E0
1.399612500E0,-5.120047927E-1,1.004023838E1,8.039059043E-1
1.404575000E0,-6.723205447E-1,9.896661758E0,8.924434781E-1
1.409539063E0,-6.771089435E-1,9.784202576E0,9.857599139E-1
1.414501563E0,-5.263604522E-1,9.855990410E0,9.785868526E-1
1.419464063E0,-4.378228784E-1,9.798557281E0,9.379045963E-1
1.424428125E0,-3.780061305E-1,9.707635880E0,9.235489368E-1
1.429390625E0,-4.043232203E-1,9.664558411E0,1.009692311E0
1.434354688E0,-4.426112771E-1,9.664558411E0,1.000115514E0
1.439317188E0,-3.851887584E-1,9.690885544E0,1.112575889E0
1.444281250E0,-3.421122730E-1,9.745914459E0,1.162825465E0
1.449243750E0,-3.205740452E-1,9.796163559E0,1.213074923E0
1.454206250E0,-3.684388995E-1,9.793779373E0,1.201113582E0
1.459170313E0,-3.229682446E-1,9.748308182E0,1.069509029E0
1.464134375E0,-3.875733614E-1,9.705241203E0,1.038403511E0
1.469096875E0,-3.110068142E-1,9.645415306E0,1.009692311E0
1.474059375E0,-2.487958670E-1,9.674136162E0,8.828666210E-1
1.479023438E0,-1.626524776E-1,9.671741486E0,7.871560454E-1
1.483985938E0,-7.650911063E-2,9.681308746E0,8.685110211E-1
1.488948438E0,-7.411490381E-2,9.678915024E0,9.618370533E-1
1.493912500E0,-1.147971824E-1,9.650202751E0,1.040797710E0
1.498875000E0,-4.540364072E-2,9.774634361E0,1.117364407E0
1.503839063E0,-3.583640978E-2,9.817702293E0,1.129325747E0
1.508801563E0,-1.674408913E-1,9.774634361E0,1.107797146E0
1.513764063E0,-1.339412183E-1,9.743529320E0,1.059941769E0
1.518728125E0,-8.847054094E-2,9.738740921E0,8.900492787E-1
1.523690625E0,-2.625960298E-2,9.741134644E0,7.728003860E-1
1.528654688E0,1.651520431E-1,9.729164124E0,7.273392677E-1
1.533617188E0,1.460079998E-1,9.733952522E0,6.938396692E-1
1.538581250E0,1.484021842E-1,9.743529320E0,7.225509286E-1
1.543543750E0,1.603731960E-1,9.815307617E0,8.230499029E-1
1.548507813E0,1.866902709E-1,9.839240074E0,7.919444442E-1
1.553470313E0,1.890844703E-1,1.007613182E1,8.397997618E-1
1.558432813E0,2.034401149E-1,1.018859291E1,8.637226820E-1
1.563396875E0,1.388349682E-1,1.031780243E1,9.402987957E-1
1.568359375E0,9.338344634E-2,1.042786884E1,1.071903229E0
1.573323438E0,-6.215347722E-2,1.059536743E1,1.119758487E0
1.578285938E0,9.634267539E-3,1.074132729E1,1.222651720E0
1.583250000E0,-5.258624628E-2,1.088969135E1,1.272901297E0
1.588212500E0,-1.817965209E-1,1.090882587E1,1.550465822E0
1.593175000E0,-1.913637519E-1,1.113375568E1,1.689252973E0
1.598139063E0,-2.224692255E-1,1.127014923E1,1.753858089E0
1.603101563E0,-2.392190546E-1,1.145439720E1,1.775396347E0
1.608065625E0,-2.918627560E-1,1.154531956E1,1.890250921E0
1.613028125E0,-2.081135809E-1,1.169606876E1,1.983567357E0
1.617990625E0,-2.129019946E-1,1.165300083E1,1.918962240E0
1.622954688E0,-5.497087166E-2,1.177742290E1,1.871106982E0
1.627917188E0,7.184520364E-2,1.180375004E1,1.947673440E0
1.632881250E0,7.184520364E-2,1.192098904E1,2.081672192E0
1.637843750E0,1.053352952E-1,1.202388191E1,2.127133369E0
1.642807813E0,1.029410958E-1,1.208610249E1,2.105604649E0
1.647770313E0,9.815269709E-2,1.205977631E1,2.026634216E0
1.652734375E0,3.834553435E-2,1.207413197E1,2.038605452E0
1.657696875E0,2.451662440E-3,1.213635254E1,1.971606016E0
1.662659375E0,-5.736507475E-2,1.212916946E1,1.875895381E0
1.667623438E0,-5.258624628E-2,1.213873672E1,1.868712783E0
1.672585938E0,-1.190397050E-2,1.216506386E1,1.942894697E0
1.677548438E0,-4.721365869E-3,1.218898678E1,2.012278795E0
1.682512500E0,-2.625960298E-2,1.223923492E1,1.897423983E0
1.687475000E0,-9.565314651E-2,1.228231239E1,1.751463890E0
1.692439063E0,-1.124029830E-1,1.229427338E1,1.641397715E0
1.697401563E0,-2.033347636E-1,1.234691715E1,1.627041936E0
1.702365625E0,-2.129019946E-1,1.241391659E1,1.650964856E0
1.707328125E0,-2.368248552E-1,1.230623531E1,1.756252289E0
1.712290625E0,-2.751129270E-1,1.216985130E1,1.631820798E0
1.717254688E0,-2.751129270E-1,1.212438107E1,1.684464574E0
1.722218750E0,-2.368248552E-1,1.206217003E1,1.627041936E0
1.727181250E0,-2.081135809E-1,1.205020905E1,1.627041936E0
1.732143750E0,-1.698351055E-1,1.203823757E1,1.832818866E0
1.737107813E0,-9.804734588E-2,1.198320866E1,1.871106982E0
1.742070313E0,-1.147971824E-1,1.192098904E1,1.907000899E0
1.747034375E0,-1.770081222E-1,1.178221130E1,2.000317335E0
1.751996875E0,-2.655456960E-1,1.145439720E1,1.878279924E0
1.756959375E0,-2.440074682E-1,1.136825371E1,1.820857406E0
1.761923438E0,-2.057193965E-1,1.118639946E1,1.818463206E0
1.766885938E0,-1.530852467E-1,1.110742950E1,1.844780326E0
1.771850000E0,-1.052203774E-1,1.096386337E1,1.832818866E0
1.776812500E0,-5.019204319E-2,1.082269192E1,1.813674808E0
1.781776563E0,-1.004415527E-1,1.063365555E1,1.674897313E0
1.786739063E0,-7.172070444E-2,1.050444508E1,1.713175774E0
1.791701563E0,-1.267586201E-1,1.033934116E1,1.701214314E0
1.796665625E0,-1.722197086E-1,1.025798607E1,1.536110282E0
1.801628125E0,-1.913637519E-1,1.018380356E1,1.524148822E0
1.806590625E0,-2.607572973E-1,1.013115978E1,1.560042739E0
1.811554688E0,-3.086126149E-1,1.003784370E1,1.349467874E0
1.816518750E0,-3.827945590E-1,9.987594604E0,1.241795778E0
1.821481250E0,-4.689379334E-1,9.992383003E0,1.189152122E0
1.826443750E0,-4.473996758E-1,9.961267471E0,1.189152122E0
1.831407813E0,-5.024375916E-1,9.884700775E0,1.225046039E0
1.836370313E0,-4.976491928E-1,9.808135033E0,1.105402946E0
1.841334375E0,-4.497938752E-1,9.836845398E0,1.040797710E0
1.846296875E0,-4.043232203E-1,9.729164124E0,1.153258204E0
1.851259375E0,-3.181893826E-1,9.717203140E0,1.057547569E0
1.856223438E0,-2.583630979E-1,9.654992104E0,1.069509029E0
1.861185938E0,-2.727187276E-1,9.633453369E0,9.881540537E-1
1.866148438E0,-2.487958670E-1,9.628664970E0,9.905482531E-1
1.871112500E0,-2.870743573E-1,9.626279831E0,1.076691628E0
1.876075000E0,-3.110068142E-1,9.681308746E0,9.977213144E-1
1.881037500E0,-2.990453839E-1,9.614309311E0,1.122152686E0
1.886001563E0,-2.392190546E-1,9.583204269E0,1.124547005E0
1.890964063E0,-2.248634249E-1,9.590386391E0,1.155652523E0
1.895928125E0,-3.014395833E-1,9.506637573E0,1.028836250E0
1.900890625E0,-1.889695525E-1,9.537743568E0,1.024047971E0
1.905854688E0,-1.578640938E-1,9.580809593E0,1.026442170E0
1.910817188E0,-1.937579513E-1,9.592781067E0,1.098220348E0
1.915781250E0,-2.368248552E-1,9.671741486E0,1.198719382E0
1.920743750E0,-1.363354176E-1,9.705241203E0,1.315968156E0
1.925706250E0,-1.100087836E-1,9.702846527E0,1.217863441E0
1.930670313E0,4.313393682E-2,9.719596863E0,1.198719382E0
1.935632813E0,7.423940301E-2,9.676529884E0,1.191546321E0
1.940596875E0,6.466259807E-2,9.681308746E0,1.160440803E0
1.945559375E0,7.663360238E-2,9.745914459E0,1.124547005E0
1.950523438E0,5.746084207E-5,9.798557281E0,1.114970207E0
1.955485938E0,-1.100087836E-1,9.817702293E0,1.148469806E0
1.960450000E0,-1.482968628E-1,9.997160912E0,1.239401579E0
1.965412500E0,-2.105077952E-1,1.005219936E1,1.265718579E0
1.970375000E0,-2.655456960E-1,9.958883286E0,1.268112898E0
1.975339063E0,-2.607572973E-1,9.982805252E0,1.213074923E0
1.980301563E0,-1.865849346E-1,9.997160912E0,1.000115514E0
1.985265625E0,-7.172070444E-2,1.006655502E1,9.594427943E-1
1.990229688E0,-3.104800731E-2,1.010962200E1,9.666158557E-1
1.995192188E0,-4.300943762E-2,1.017662144E1,1.000115514E0
2.000154688E0,-4.300943762E-2,1.034651375E1,1.086258888E0
2.005117188E0,-2.272576243E-1,1.051640606E1,1.213074923E0
2.010081250E0,-2.464016527E-1,1.065519333E1,1.174796462E0
2.015045313E0,-2.559688985E-1,1.064083767E1,1.179575324E0
2.020006250E0,-3.971501887E-1,1.074132729E1,1.215469122E0
2.024970313E0,-4.545727372E-1,1.081311512E1,1.179575324E0
2.029934375E0,-5.048221946E-1,1.085857582E1,1.208296180E0
2.034896875E0,-4.258614480E-1,1.082986546E1,1.174796462E0
2.039860938E0,-4.426112771E-1,1.089207649E1,1.160440803E0
2.044823438E0,-4.115057886E-1,1.096625805E1,1.103008628E0
2.049785938E0,-2.990453839E-1,1.091840267E1,1.119758487E0
2.054750000E0,-2.296518236E-1,1.092319012E1,1.148469806E0
2.059712500E0,-1.674408913E-1,1.097344017E1,1.138902545E0
2.064675000E0,-1.626524776E-1,1.089925861E1,1.167613864E0
2.069639063E0,-9.565314651E-2,1.089446926E1,1.167613864E0
2.074631250E0,-7.172070444E-2,1.099496841E1,1.275295496E0
2.079565625E0,-9.804734588E-2,1.096146965E1,1.337506413E0
2.084528125E0,-5.258624628E-2,1.094711399E1,1.270507097E0
2.089490625E0,9.634267539E-3,1.093036461E1,1.363823533E0
2.094454688E0,1.125083268E-1,1.091121960E1,1.363823533E0
2.099417188E0,1.364407688E-1,1.093275738E1,1.296824098E0
2.104379688E0,2.034401149E-1,1.094471931E1,1.268112898E0
2.109343750E0,2.369397730E-1,1.097344017E1,1.368611932E0
2.114306250E0,2.393339872E-1,1.088011456E1,1.308795214E0
2.119270313E0,2.417281866E-1,1.079636478E1,1.332718015E0
2.124234375E0,2.345455736E-1,1.080832672E1,1.299218416E0
2.129195313E0,2.680452466E-1,1.071022129E1,1.289651155E0
2.134159375E0,2.967565060E-1,1.069826031E1,1.320756555E0
2.139123438E0,3.254773617E-1,1.065997219E1,1.399717450E0
2.144085938E0,2.871892750E-1,1.056665611E1,1.471505165E0
2.149048438E0,2.847950757E-1,1.054990578E1,1.430822849E0
2.154012500E0,1.866902709E-1,1.057383919E1,1.416467190E0
2.158975000E0,1.842960715E-1,1.047094536E1,1.272901297E0
2.163937500E0,2.704394460E-1,1.032259083E1,1.160440803E0
2.168901563E0,2.082285136E-1,1.027951431E1,9.570485950E-1
2.173865625E0,1.316523552E-1,1.017662144E1,7.943387032E-1
2.178828125E0,2.159569971E-2,1.013355446E1,8.015117049E-1
2.183790625E0,-2.625960298E-2,1.010962200E1,6.699072123E-1
2.188754688E0,-7.172070444E-2,1.007134342E1,6.866570711E-1
2.193717188E0,-1.267586201E-1,1.002826691E1,7.321181893E-1
2.198679688E0,-9.086474776E-2,9.994767189E0,7.560505867E-1
2.203643750E0,-1.602582783E-1,9.894268990E0,8.278383017E-1
2.208606250E0,-1.124029830E-1,9.844018936E0,7.847618461E-1
2.213570313E0,-9.325893968E-2,9.824884415E0,7.393007874E-1
2.218532813E0,-6.215347722E-2,9.779414177E0,6.986184716E-1
2.223496875E0,-1.698351055E-1,9.803345680E0,7.153682709E-1
2.228459375E0,-1.865849346E-1,9.760279655E0,7.751946449E-1
2.233423438E0,-2.679399252E-1,9.774634361E0,7.440891862E-1
2.238385938E0,-2.559688985E-1,9.690885544E0,7.034068704E-1
2.243350000E0,-2.487958670E-1,9.743529320E0,7.010126710E-1
2.248312500E0,-1.650466919E-1,9.731558800E0,7.369065285E-1
2.253276563E0,-1.722197086E-1,9.609530449E0,7.560505867E-1
2.258239063E0,-1.650466919E-1,9.652597427E0,6.723014116E-1
2.263201563E0,-1.937579513E-1,9.614309311E0,7.536563873E-1
2.268165625E0,-2.176903933E-1,9.554492950E0,7.536563873E-1
2.273128125E0,-2.990453839E-1,9.520993233E0,7.201567292E-1
2.278090625E0,-3.708235621E-1,9.523387909E0,6.483689547E-1
2.283054688E0,-4.378228784E-1,9.597559929E0,7.081953287E-1
2.288017188E0,-5.024375916E-1,9.609530449E0,6.531573534E-1
2.292981250E0,-5.598601103E-1,9.676529884E0,7.919444442E-1
2.297943750E0,-3.923617899E-1,9.666953087E0,9.331161380E-1
2.302906250E0,-2.320460379E-1,9.583204269E0,8.565496206E-1
2.307870313E0,3.116292879E-2,9.504242897E0,7.034068704E-1
2.312832813E0,2.465070039E-1,9.410926819E0,4.138808548E-1
2.317796875E0,2.249783427E-1,9.406138420E0,2.798821628E-1
2.322759375E0,-5.975927413E-2,9.394176483E0,1.434893012E-1
2.327723438E0,-2.822955251E-1,9.384600639E0,7.888415456E-2
2.332687500E0,-2.009405643E-1,9.391782761E0,1.865562052E-1
2.337650000E0,1.220851392E-1,9.425282478E0,3.875542283E-1
2.342612500E0,2.010459006E-1,9.442031860E0,4.808706343E-1
2.347575000E0,2.130073458E-1,9.525781631E0,4.043040574E-1
2.352539063E0,1.699404269E-1,9.595166206E0,2.128828466E-1
2.357503125E0,2.010459006E-1,9.590386391E0,1.099896207E-1
2.362465625E0,1.244793311E-1,9.635848045E0,2.128828466E-1
2.367429688E0,2.465070039E-1,9.525781631E0,3.157664835E-1
2.372390625E0,1.890844703E-1,9.609530449E0,4.066982567E-1
2.377354688E0,1.149025261E-1,9.619097710E0,4.808706343E-1
2.382317188E0,-5.497087166E-2,9.800951958E0,6.124846935E-1
2.387281250E0,-7.411490381E-2,9.800951958E0,7.440891862E-1
2.392243750E0,-1.908657700E-2,9.870346069E0,9.259431362E-1
2.397207813E0,8.859504014E-2,9.834450722E0,9.594427943E-1
2.402170313E0,2.154015303E-1,9.717203140E0,9.307219982E-1
2.407132813E0,2.560837865E-1,9.664558411E0,7.847618461E-1
2.412096875E0,2.871892750E-1,9.621492386E0,6.842628121E-1
2.417059375E0,3.135063350E-1,9.623887062E0,4.880532324E-1
2.422023438E0,3.422271907E-1,9.638241768E0,3.373047113E-1
2.426985938E0,3.015449345E-1,9.664558411E0,3.636313379E-1
2.431950000E0,2.943718731E-1,9.652597427E0,2.774879634E-1
2.436912500E0,2.417281866E-1,9.650202751E0,2.726995945E-1
2.441875000E0,1.842960715E-1,9.669347763E0,2.990166247E-1
2.446839063E0,1.220851392E-1,9.693280220E0,2.296326756E-1
2.451801563E0,8.380663395E-2,9.714808464E0,1.745947748E-1
2.456765625E0,5.746084207E-5,9.705241203E0,1.506623179E-1
2.461728125E0,-1.387200505E-1,9.755491257E0,1.482776999E-1
2.466690625E0,-2.200750262E-1,9.791384697E0,3.109876513E-1
2.471654688E0,-2.727187276E-1,9.832057953E0,3.899484277E-1
2.476617188E0,-3.397180736E-1,9.867951393E0,3.827657998E-1
2.481581250E0,-3.038241863E-1,9.958883286E0,3.205548823E-1
2.486543750E0,-4.115057886E-1,9.961267471E0,2.487671375E-1
2.491507813E0,-4.091115892E-1,9.970844269E0,2.057002187E-1
2.496470313E0,-4.043232203E-1,9.934949875E0,2.272384614E-1
2.501432813E0,-4.091115892E-1,9.913412094E0,2.439883053E-1
2.506396875E0,-3.516891003E-1,9.956489563E0,2.272384614E-1
2.511359375E0,-3.373238444E-1,9.956489563E0,2.415941060E-1
2.516323438E0,-2.918627560E-1,9.970844269E0,1.363066882E-1
2.521285938E0,-3.397180736E-1,1.009526634E1,2.624044940E-2
2.526250000E0,-3.373238444E-1,1.005938148E1,-8.619125583E-5
2.531212500E0,-3.804003298E-1,1.015269852E1,-9.653421119E-3
2.536175000E0,-4.210730195E-1,1.019576550E1,-9.100839496E-2
2.541139063E0,-4.473996758E-1,1.019098663E1,-6.469132751E-2
2.546101563E0,-5.024375916E-1,1.020055389E1,1.905784570E-2
2.551065625E0,-5.287546515E-1,1.025319767E1,-5.511452630E-2
2.556028125E0,-4.282556474E-1,1.028430271E1,2.624044940E-2
2.560992188E0,-3.181893826E-1,1.032498550E1,9.802819043E-2
2.565956250E0,-2.176903933E-1,1.040872478E1,1.506623179E-1
2.570917188E0,-1.530852467E-1,1.030584049E1,2.224500775E-1
2.575881250E0,-1.243644133E-1,1.033934116E1,2.487671375E-1
2.580845313E0,-3.104800731E-2,1.030105305E1,3.325162828E-1
2.585807813E0,5.509537086E-2,1.040394592E1,3.875542283E-1
2.590771875E0,1.244793311E-1,1.031062031E1,4.019098580E-1
2.595734375E0,2.106227130E-1,1.032259083E1,3.995156586E-1
2.600696875E0,1.723346412E-1,1.031301498E1,5.311201215E-1
2.605659375E0,2.800066769E-1,1.034412003E1,5.574467778E-1
2.610625000E0,2.632568479E-1,1.028909206E1,6.435901523E-1
2.615587500E0,2.058342993E-1,1.023884201E1,8.302229643E-1
2.620550000E0,1.675462276E-1,1.027234173E1,9.163663387E-1
2.625514063E0,1.340465695E-1,1.028909206E1,8.972222805E-1
2.630476563E0,9.576806426E-2,1.031301498E1,8.756936789E-1
2.635439063E0,1.819018722E-1,1.020773602E1,8.948376179E-1
2.640403125E0,1.771230400E-1,1.020055389E1,7.728003860E-1
2.645365625E0,2.584780157E-1,1.009048748E1,7.153682709E-1
2.650328125E0,1.842960715E-1,9.970844269E0,7.895502448E-1
2.655292188E0,2.656510174E-1,9.899056435E0,7.488679886E-1
2.660254688E0,1.819018722E-1,9.973237991E0,6.986184716E-1
2.665217188E0,8.141243458E-2,9.978017807E0,7.704062462E-1
2.670181250E0,5.988377333E-2,1.003305531E1,7.991175056E-1
2.675143750E0,5.988377333E-2,1.014312172E1,7.751946449E-1
2.680107813E0,4.073973373E-2,1.010962200E1,8.685110211E-1
2.685070313E0,3.116292879E-2,9.944517136E0,8.709052205E-1
2.690034375E0,-5.019204319E-2,9.980412483E0,8.445882201E-1
2.694996875E0,4.845864139E-3,9.882307053E0,8.445882201E-1
2.699960938E0,3.595133126E-2,9.803345680E0,8.278383017E-1
2.704923438E0,-2.386540174E-2,9.788990021E0,7.512621880E-1
2.709887500E0,-2.625960298E-2,9.686098099E0,6.172634959E-1
2.714850000E0,1.202846877E-2,9.643030167E0,5.143703222E-1
2.719812500E0,5.030696467E-2,9.628664970E0,4.856590331E-1
2.724776563E0,5.988377333E-2,9.595166206E0,5.335143209E-1
2.729739063E0,1.412291676E-1,9.511416435E0,4.401979446E-1
2.734703125E0,1.196909323E-1,9.549704552E0,3.947368264E-1
2.739665625E0,1.460079998E-1,9.523387909E0,2.726995945E-1
2.744628125E0,1.627578288E-1,9.552098274E0,2.248442620E-1
2.749592188E0,8.859504014E-2,9.511416435E0,1.722005606E-1
2.754554688E0,2.398990095E-2,9.523387909E0,2.384624816E-2
2.759517188E0,-1.530852467E-1,9.571242332E0,4.059608281E-2
2.764481250E0,-2.033347636E-1,9.638241768E0,-7.259219419E-3
2.769445313E0,-2.272576243E-1,9.662164688E0,6.213432178E-2
2.774407813E0,-2.894685566E-1,9.631059647E0,8.605717868E-2
2.779370313E0,-2.296518236E-1,9.695664406E0,9.323979169E-2
2.784334375E0,-2.846897244E-1,9.714808464E0,4.059608281E-2
2.789296875E0,-2.464016527E-1,9.707635880E0,-6.229712814E-2
2.794259375E0,-3.373238444E-1,9.748308182E0,2.308010357E-3
2.799223438E0,-3.181893826E-1,9.731558800E0,-2.640325576E-2
2.804187500E0,-3.110068142E-1,9.712413788E0,-2.161485329E-2
2.809150000E0,-2.320460379E-1,9.815307617E0,1.075954214E-1
2.814112500E0,-2.176903933E-1,9.762663841E0,2.320173085E-1
2.819076563E0,-2.320460379E-1,9.846412659E0,2.870551944E-1
2.824039063E0,-2.846897244E-1,9.855990410E0,4.473805130E-1
2.829003125E0,-2.176903933E-1,9.937344551E0,4.210538864E-1
2.833965625E0,-1.482968628E-1,9.920595169E0,3.109876513E-1
2.838928125E0,-1.124029830E-1,9.975632668E0,3.277374804E-1
2.843892188E0,-5.975927413E-2,9.970844269E0,2.966320217E-1
2.848854688E0,-8.129751682E-2,1.001630592E1,3.301316798E-1
2.853818750E0,-1.363354176E-1,9.949306488E0,3.181606829E-1
2.858781250E0,-1.124029830E-1,9.997160912E0,2.990166247E-1
2.863743750E0,-1.190397050E-2,1.007373714E1,4.019098580E-1
2.868707813E0,-3.344221041E-2,1.009288216E1,4.019098580E-1
2.873670313E0,5.748957023E-2,1.009526634E1,4.330153167E-1
2.878634375E0,1.220851392E-1,1.006894875E1,4.665149748E-1
2.883596875E0,1.866902709E-1,1.004741096E1,5.167644620E-1
2.888560938E0,3.470060229E-1,9.966055870E0,6.100904346E-1
2.893523438E0,3.661500514E-1,9.925383568E0,7.608389854E-1
2.898485938E0,3.039391041E-1,1.000673866E1,6.292344928E-1
2.903450000E0,3.302561939E-1,9.989988327E0,6.746956110E-1
2.908412500E0,3.015449345E-1,9.951700211E0,6.555515528E-1
2.913376563E0,3.159005344E-1,9.985199928E0,7.775887847E-1
2.918339063E0,3.350445926E-1,1.006176662E1,8.254441619E-1
2.923303125E0,3.685442507E-1,9.980412483E0,7.512621880E-1
2.928265625E0,3.661500514E-1,9.963662148E0,6.842628121E-1
2.933228125E0,3.709384501E-1,9.975632668E0,6.675130129E-1
2.938192188E0,3.637558520E-1,9.966055870E0,6.124846935E-1
2.943154688E0,3.422271907E-1,1.001151752E1,6.076962948E-1
2.948118750E0,2.345455736E-1,9.968450546E0,5.981194377E-1
2.953081250E0,1.914786696E-1,9.980412483E0,6.029078960E-1
2.958045313E0,5.746084207E-5,9.975632668E0,5.287354589E-1
2.963007813E0,2.451662440E-3,9.985199928E0,5.239470601E-1
2.967970313E0,-1.429817267E-2,9.872738838E0,4.138808548E-1
2.972934375E0,-1.908657700E-2,9.877518654E0,3.851599991E-1
2.977896875E0,-1.411142498E-1,9.820096016E0,3.779869974E-1
2.982860938E0,-1.674408913E-1,9.839240074E0,3.038050532E-1
2.987823438E0,-1.841907203E-1,9.844018936E0,2.607381344E-1
2.992785938E0,-1.626524776E-1,9.798557281E0,2.415941060E-1
2.997750000E0,-1.913637519E-1,9.853595734E0,1.506623179E-1
3.002712500E0,-1.435084492E-1,9.805740356E0,1.793831587E-1
3.007676563E0,-1.459026486E-1,9.779414177E0,2.863465250E-2
3.012639063E0,-9.565314651E-2,9.731558800E0,-1.683602668E-2
3.017603125E0,-1.267586201E-1,9.698058128E0,-1.101524383E-1
3.022565625E0,-7.172070444E-2,9.688490868E0,-3.597048670E-2
3.027528125E0,-7.172070444E-2,9.688490868E0,1.427901909E-2
3.032492188E0,-1.429817267E-2,9.717203140E0,1.315278560E-1
3.037454688E0,6.945100427E-2,9.693280220E0,1.650275439E-1
3.042418750E0,6.705679744E-2,9.631059647E0,1.243452579E-1
3.047381250E0,-2.336740959E-3,9.666953087E0,1.339124888E-1
3.052345313E0,-8.369170874E-2,9.628664970E0,7.648995519E-2
3.057307813E0,-2.386540174E-2,9.609530449E0,-3.119166009E-2
3.062271875E0,-8.608591557E-2,9.707635880E0,2.308010357E-3
3.067262500E0,-6.694187969E-2,9.683703423E0,-9.819100052E-2
3.072196875E0,-2.865380608E-2,9.580809593E0,-1.221138611E-1
3.077160938E0,-2.336740959E-3,9.731558800E0,-1.364599168E-1
3.082123438E0,-4.721365869E-3,9.669347763E0,-7.425855845E-2
3.087085938E0,-5.019204319E-2,9.719596863E0,-8.861419559E-2
3.092050000E0,-3.104800731E-2,9.693280220E0,-3.597048670E-2
3.097012500E0,4.845864139E-3,9.688490868E0,1.666364260E-2
3.101976563E0,1.441309415E-2,9.741134644E0,-1.388541311E-1
3.106939063E0,-2.147120051E-2,9.841633797E0,-7.186435908E-2
3.111903125E0,-5.497087166E-2,9.851201057E0,2.384624816E-2
3.116865625E0,-8.369170874E-2,1.001870060E1,1.171626523E-1
3.121829688E0,-1.052203774E-1,1.000434399E1,3.636313379E-1
3.126792188E0,-7.172070444E-2,1.005938148E1,4.689091742E-1
3.131754688E0,-4.779784381E-2,1.013834286E1,5.622351766E-1
3.136718750E0,-7.172070444E-2,1.006655502E1,6.914454103E-1
3.141681250E0,1.603731960E-1,1.005698872E1,8.063001037E-1
3.146645313E0,2.273725420E-1,1.004741096E1,8.374055624E-1
3.151607813E0,3.398329914E-1,1.005938148E1,8.015117049E-1
3.156570313E0,3.852941096E-1,9.944517136E0,8.517611623E-1
3.161534375E0,4.522934258E-1,1.000195026E1,8.374055624E-1
3.166496875E0,4.498992264E-1,9.985199928E0,8.302229643E-1
3.171460938E0,4.522934258E-1,9.942132950E0,8.278383017E-1
3.176425000E0,3.757268786E-1,9.920595169E0,9.044048786E-1
3.181387500E0,4.379377961E-1,9.973237991E0,8.230499029E-1
3.186350000E0,4.020439088E-1,9.901451111E0,7.943387032E-1
3.191314063E0,4.092265368E-1,9.882307053E0,7.799734473E-1
3.196276563E0,3.876882792E-1,9.863162994E0,7.034068704E-1
3.201240625E0,3.828999102E-1,9.824884415E0,7.584447861E-1
3.206203125E0,3.302561939E-1,9.865556717E0,7.584447861E-1
3.211165625E0,2.824008763E-1,9.829663277E0,6.890512705E-1
3.216128125E0,3.015449345E-1,9.925383568E0,6.818686724E-1
3.221092188E0,1.986517012E-1,9.939739227E0,6.388017535E-1
3.226054688E0,1.484021842E-1,9.951700211E0,6.627342105E-1
3.231018750E0,9.576806426E-2,1.001870060E1,6.316191554E-1
3.235982813E0,-1.429817267E-2,1.001630592E1,5.119856596E-1
3.240945313E0,-2.625960298E-2,1.001391125E1,6.076962948E-1
3.245907813E0,-1.147971824E-1,1.006176662E1,6.053020358E-1
3.250871875E0,-1.339412183E-1,1.011680508E1,6.124846935E-1
3.255834375E0,-1.841907203E-1,1.010244942E1,6.053020358E-1
3.260798438E0,-1.506910622E-1,1.005459404E1,6.507631540E-1
3.265760938E0,-1.387200505E-1,1.004501629E1,5.478699207E-1
3.270723438E0,-1.363354176E-1,9.966055870E0,4.497651756E-1
3.275687500E0,-1.770081222E-1,9.989988327E0,3.612371385E-1
3.280650000E0,-1.578640938E-1,9.901451111E0,3.229490519E-1
3.285614063E0,-4.540364072E-2,9.920595169E0,2.080944330E-1
3.290576563E0,7.240065839E-3,9.891883850E0,2.104886323E-1
3.295540625E0,5.746084207E-5,9.911018372E0,2.296326756E-1
3.300503125E0,2.398990095E-2,9.899056435E0,3.301316798E-1
3.305465625E0,6.466259807E-2,9.846412659E0,4.114866555E-1
3.310429688E0,1.101237014E-1,9.808135033E0,3.277374804E-1
3.315392188E0,1.388349682E-1,9.769846916E0,2.774879634E-1
3.320356250E0,1.292581707E-1,9.800951958E0,1.865562052E-1
3.325318750E0,1.053352952E-1,9.796163559E0,2.559497356E-1
3.330282813E0,9.815269709E-2,9.786596298E0,1.291336715E-1
3.335245313E0,1.101237014E-1,9.808135033E0,1.219510585E-1
3.340207813E0,5.270116776E-2,9.788990021E0,2.320173085E-1
3.345170313E0,7.184520364E-2,9.767452240E0,3.133818507E-1
3.350134375E0,7.902780920E-2,9.853595734E0,4.019098580E-1
3.355096875E0,1.125083268E-1,9.791384697E0,4.784860015E-1
3.360059375E0,1.244793311E-1,9.812912941E0,4.856590331E-1
3.365025000E0,1.675462276E-1,9.772240639E0,5.263413191E-1
3.369987500E0,2.345455736E-1,9.791384697E0,5.981194377E-1
3.374950000E0,3.039391041E-1,9.736346245E0,5.167644620E-1
3.379912500E0,3.828999102E-1,9.731558800E0,6.172634959E-1
3.384875000E0,4.618606567E-1,9.741134644E0,6.148692966E-1
3.389839063E0,4.642548561E-1,9.762663841E0,6.746956110E-1
3.394801563E0,4.786105156E-1,9.724386215E0,7.273392677E-1
3.399765625E0,4.163995683E-1,9.781807899E0,7.058010697E-1
3.404729688E0,3.876882792E-1,9.786596298E0,7.345123291E-1
3.409692188E0,4.235821664E-1,9.779414177E0,7.201567292E-1
3.414656250E0,4.259763658E-1,9.726778984E0,6.627342105E-1
3.419617188E0,4.738316536E-1,9.717203140E0,6.651188135E-1
3.424582813E0,5.049371123E-1,9.650202751E0,6.172634959E-1
3.429543750E0,5.264754295E-1,9.652597427E0,5.550525784E-1
3.434507813E0,5.862920880E-1,9.669347763E0,4.736976027E-1
3.439471875E0,6.389358044E-1,9.664558411E0,4.258422852E-1
3.444434375E0,6.413300037E-1,9.686098099E0,4.043040574E-1
3.449398438E0,5.575808883E-1,9.683703423E0,2.870551944E-1
3.454360938E0,4.881873131E-1,9.657385826E0,4.401979446E-1
3.459323438E0,4.953603148E-1,9.695664406E0,5.000146627E-1
3.464285938E0,4.666490853E-1,9.645415306E0,5.646198392E-1
3.469250000E0,4.594760537E-1,9.710029602E0,5.670139790E-1
3.474212500E0,4.594760537E-1,9.712413788E0,6.411958933E-1
3.479176563E0,3.182947338E-1,9.748308182E0,7.177625299E-1
3.484140625E0,3.206889629E-1,9.765057564E0,7.058010697E-1
3.489103125E0,2.656510174E-1,9.827268600E0,6.555515528E-1
3.494067188E0,2.441223711E-1,9.846412659E0,6.029078960E-1
3.499029688E0,2.058342993E-1,9.839240074E0,5.311201215E-1
3.503992188E0,1.005468965E-1,9.946911812E0,4.497651756E-1
3.508954688E0,4.552813992E-2,9.946911812E0,4.282364845E-1
3.513918750E0,5.988377333E-2,9.985199928E0,3.612371385E-1
3.518881250E0,1.441309415E-2,9.970844269E0,3.564487696E-1
3.523843750E0,-2.386540174E-2,9.922988892E0,3.779869974E-1
3.528807813E0,3.116292879E-2,9.939739227E0,4.378037155E-1
3.533770313E0,1.029410958E-1,9.958883286E0,6.435901523E-1
3.538734375E0,2.451662440E-3,1.001630592E1,6.340133548E-1
3.543696875E0,7.663360238E-2,9.978017807E0,6.603399515E-1
3.548660938E0,8.380663395E-2,1.004023838E1,7.153682709E-1
3.553623438E0,1.938728839E-1,9.954094887E0,6.316191554E-1
3.558585938E0,1.651520431E-1,9.975632668E0,6.627342105E-1
3.563550000E0,2.297571748E-1,9.944517136E0,5.694081783E-1
3.568512500E0,2.967565060E-1,9.899056435E0,5.574467778E-1
3.573476563E0,3.422271907E-1,9.925383568E0,4.641303718E-1
3.578439063E0,3.589770198E-1,9.949306488E0,4.760918021E-1
3.583401563E0,3.159005344E-1,9.915806770E0,4.808706343E-1
3.588365625E0,3.182947338E-1,9.908634186E0,4.330153167E-1
3.593328125E0,2.321513742E-1,9.930162430E0,5.646198392E-1
3.598292188E0,1.603731960E-1,9.999555588E0,5.095914602E-1
3.603254688E0,5.748957023E-2,9.932557106E0,6.268403530E-1
3.608218750E0,5.988377333E-2,9.989988327E0,5.813696384E-1
3.613181250E0,4.791276529E-2,9.975632668E0,5.000146627E-1
3.618143750E0,1.920149848E-2,9.992383003E0,4.952358305E-1
3.623107813E0,2.451662440E-3,9.997160912E0,4.330153167E-1
3.628070313E0,-2.147120051E-2,1.001151752E1,4.234480858E-1
3.633034375E0,-2.865380608E-2,1.002588272E1,5.239470601E-1
3.637996875E0,-4.540364072E-2,1.007613182E1,4.641303718E-1
3.642960938E0,-7.172070444E-2,9.989988327E0,6.268403530E-1
3.647923438E0,-3.104800731E-2,1.002348804E1,5.502641797E-1
3.652885938E0,4.552813992E-2,9.968450546E0,5.502641797E-1
3.657850000E0,6.227797270E-2,9.899056435E0,4.928416312E-1
3.662812500E0,1.340465695E-1,9.889489174E0,4.880532324E-1
3.667776563E0,1.507963985E-1,9.887095451E0,4.880532324E-1
3.672739063E0,1.651520431E-1,9.848807335E0,5.861580372E-1
3.677703125E0,1.747288406E-1,9.844018936E0,6.435901523E-1
3.682665625E0,2.177957445E-1,9.834450722E0,6.196576953E-1
3.687628125E0,2.512954175E-1,9.872738838E0,7.297335267E-1
3.692592188E0,2.034401149E-1,9.810519218E0,7.081953287E-1
3.697554688E0,1.747288406E-1,9.860768318E0,7.153682709E-1
3.702518750E0,2.106227130E-1,9.829663277E0,6.459843516E-1
3.707482813E0,1.651520431E-1,9.808135033E0,6.148692966E-1
3.712445313E0,1.819018722E-1,9.872738838E0,6.268403530E-1
3.717407813E0,1.364407688E-1,9.741134644E0,5.574467778E-1
3.722370313E0,1.914786696E-1,9.858384132E0,4.521593750E-1
3.727334375E0,1.579789966E-1,9.812912941E0,4.952358305E-1
3.732296875E0,1.172967330E-1,9.920595169E0,5.311201215E-1
3.737260938E0,7.423940301E-2,9.932557106E0,5.143703222E-1
3.742223438E0,7.423940301E-2,9.951700211E0,5.454853773E-1
3.747187500E0,-2.336740959E-3,9.954094887E0,6.196576953E-1
3.752150000E0,3.355713189E-2,9.978017807E0,6.723014116E-1
3.757114063E0,1.244793311E-1,9.889489174E0,5.646198392E-1
3.762078125E0,6.705679744E-2,9.930162430E0,5.406969786E-1
3.767039063E0,3.116292879E-2,9.894268990E0,4.928416312E-1
3.772003125E0,5.748957023E-2,9.867951393E0,4.832648337E-1
3.776965625E0,-7.115567569E-3,9.906239510E0,5.215529203E-1
3.781929688E0,7.240065839E-3,9.934949875E0,5.024088621E-1
3.786892188E0,4.791276529E-2,9.915806770E0,5.024088621E-1
3.791854688E0,7.663360238E-2,9.958883286E0,5.000146627E-1
3.796818750E0,1.005468965E-1,9.937344551E0,5.622351766E-1
3.801781250E0,5.748957023E-2,9.927767754E0,5.718024373E-1
3.806745313E0,1.029410958E-1,9.858384132E0,6.411958933E-1
3.811707813E0,1.220851392E-1,9.848807335E0,5.694081783E-1
3.816671875E0,1.053352952E-1,9.891883850E0,5.071972609E-1
3.821634375E0,9.576806426E-2,9.877518654E0,4.952358305E-1
3.826596875E0,5.746084207E-5,9.927767754E0,5.143703222E-1
3.831560938E0,3.595133126E-2,9.939739227E0,3.612371385E-1
3.836523438E0,-9.509769268E-3,9.887095451E0,4.904474318E-1
3.841487500E0,-7.115567569E-3,9.901451111E0,3.349105120E-1
3.846450000E0,-2.386540174E-2,9.956489563E0,4.593419433E-1
3.851414063E0,-7.890331000E-2,9.844018936E0,3.516603410E-1
3.856376563E0,-7.172070444E-2,9.815307617E0,3.851599991E-1
3.861340625E0,3.595133126E-2,9.817702293E0,3.229490519E-1
3.866303125E0,5.988377333E-2,9.834450722E0,4.713034034E-1
3.871265625E0,1.244793311E-1,9.848807335E0,4.569477439E-1
3.876229688E0,2.177957445E-1,9.788990021E0,5.287354589E-1
3.881192188E0,2.512954175E-1,9.726778984E0,6.029078960E-1
3.886156250E0,3.063333035E-1,9.690885544E0,6.029078960E-1
3.891118750E0,2.776220441E-1,9.719596863E0,5.359085202E-1
3.896082813E0,2.895835042E-1,9.736346245E0,6.124846935E-1
3.901045313E0,2.560837865E-1,9.717203140E0,6.124846935E-1
3.906007813E0,2.704394460E-1,9.736346245E0,6.172634959E-1
3.910971875E0,3.230831623E-1,9.736346245E0,5.718024373E-1
3.915934375E0,2.752278447E-1,9.755491257E0,5.789849758E-1
3.920896875E0,1.819018722E-1,9.786596298E0,6.172634959E-1
3.925860938E0,2.321513742E-1,9.812912941E0,5.741965771E-1
3.930823438E0,1.771230400E-1,9.757884979E0,5.359085202E-1
3.935787500E0,5.509537086E-2,9.832057953E0,4.425921440E-1
3.940750000E0,1.680729724E-2,9.889489174E0,4.330153167E-1
3.945714063E0,-3.822103515E-2,9.891883850E0,4.354095161E-1
3.950676563E0,-7.890331000E-2,1.001391125E1,4.473805130E-1
3.955639063E0,-3.822103515E-2,1.000195026E1,4.880532324E-1
3.960603125E0,-1.004415527E-1,1.000673866E1,4.425921440E-1
3.965565625E0,-1.124029830E-1,9.963662148E0,4.617361724E-1
3.970529688E0,-7.172070444E-2,1.002109337E1,4.401979446E-1
3.975492188E0,-3.583640978E-2,9.911018372E0,5.646198392E-1
3.980456250E0,2.638410218E-2,9.922988892E0,4.736976027E-1
3.985418750E0,2.398990095E-2,9.930162430E0,5.478699207E-1
3.990381250E0,-5.019204319E-2,9.973237991E0,5.718024373E-1
3.995345313E0,-7.172070444E-2,9.954094887E0,6.555515528E-1
4.000307813E0,-9.325893968E-2,1.001870060E1,6.316191554E-1
4.005271875E0,-7.650911063E-2,9.994767189E0,5.478699207E-1
4.010234375E0,-9.565314651E-2,9.942132950E0,5.143703222E-1
4.015196875E0,-6.454767287E-2,9.944517136E0,4.354095161E-1
4.020160938E0,-8.847054094E-2,9.956489563E0,3.444873095E-1
4.025123438E0,7.240065839E-3,9.968450546E0,3.396989107E-1
4.030087500E0,-2.386540174E-2,9.946911812E0,3.971310258E-1
4.035050000E0,-2.147120051E-2,9.927767754E0,4.258422852E-1
4.040014063E0,-6.933607906E-2,9.918201447E0,3.971310258E-1
4.044976563E0,-5.019204319E-2,9.989988327E0,5.095914602E-1
4.049939063E0,-1.171913818E-1,9.999555588E0,5.335143209E-1
4.054903125E0,-1.482968628E-1,1.004023838E1,4.545535445E-1
4.059895313E0,-1.794023216E-1,1.006176662E1,5.502641797E-1
4.064829688E0,-1.267586201E-1,1.008091068E1,4.401979446E-1
4.069792188E0,-2.176903933E-1,1.010962200E1,5.048030615E-1
4.074756250E0,-2.368248552E-1,1.015030479E1,4.593419433E-1
4.079718750E0,-1.961521655E-1,1.023405361E1,4.401979446E-1
4.084681250E0,-2.033347636E-1,1.021730328E1,3.875542283E-1
4.089645313E0,-2.296518236E-1,1.021730328E1,3.684101999E-1
4.094607813E0,-2.846897244E-1,1.020294857E1,2.990166247E-1
4.099571875E0,-2.057193965E-1,1.016226578E1,3.301316798E-1
4.104534375E0,-1.482968628E-1,1.016226578E1,3.205548823E-1
4.109498438E0,-1.100087836E-1,1.008569908E1,2.942378223E-1
4.114460938E0,-4.061523825E-2,1.008809376E1,3.157664835E-1
4.119423438E0,2.159569971E-2,1.001151752E1,2.846610248E-1
4.124387500E0,1.005468965E-1,9.867951393E0,1.339124888E-1
4.129350000E0,1.723346412E-1,9.820096016E0,1.530565321E-1
4.134314063E0,1.603731960E-1,9.791384697E0,1.506623179E-1
4.139276563E0,2.082285136E-1,9.710029602E0,1.410950869E-1
4.144240625E0,2.536896169E-1,9.678915024E0,9.563399851E-2
4.149203125E0,1.890844703E-1,9.729164124E0,1.219510585E-1
4.154165625E0,1.244793311E-1,9.762663841E0,1.817677915E-1
4.159129688E0,3.116292879E-2,9.726778984E0,1.099896207E-1
4.164092188E0,-5.736507475E-2,9.712413788E0,1.817677915E-1
4.169056250E0,-3.822103515E-2,9.731558800E0,2.200558633E-1
4.174018750E0,-1.171913818E-1,9.733952522E0,2.224500775E-1
4.178982813E0,-1.985463500E-1,9.767452240E0,2.607381344E-1
4.183945313E0,-3.062183857E-1,9.712413788E0,3.492661417E-1
4.188907813E0,-2.966511548E-1,9.736346245E0,5.478699207E-1
4.193871875E0,-3.923617899E-1,9.693280220E0,5.430911183E-1
4.198834375E0,-3.947559893E-1,9.741134644E0,7.058010697E-1
4.203798438E0,-3.277566135E-1,9.762663841E0,7.105894685E-1
4.208760938E0,-3.421122730E-1,9.726778984E0,7.249451280E-1
4.213725000E0,-2.248634249E-1,9.710029602E0,6.316191554E-1
4.218687500E0,-1.889695525E-1,9.705241203E0,4.617361724E-1
4.223651563E0,-1.435084492E-1,9.707635880E0,3.827657998E-1
4.228614063E0,-8.608591557E-2,9.681308746E0,2.822668254E-1
4.233576563E0,1.441309415E-2,9.714808464E0,2.320173085E-1
4.238540625E0,-9.509769268E-3,9.714808464E0,2.655169666E-1
4.243503125E0,7.423940301E-2,9.652597427E0,3.181606829E-1
4.248465625E0,1.651520431E-1,9.717203140E0,3.971310258E-1
4.253429688E0,1.842960715E-1,9.695664406E0,4.713034034E-1
4.258392188E0,1.651520431E-1,9.690885544E0,5.909464359E-1
4.263356250E0,2.847950757E-1,9.666953087E0,4.593419433E-1
4.268318750E0,2.728336453E-1,9.657385826E0,4.784860015E-1
4.273282813E0,2.656510174E-1,9.712413788E0,4.832648337E-1
4.278245313E0,2.512954175E-1,9.765057564E0,6.316191554E-1
4.283207813E0,9.576806426E-2,9.844018936E0,7.225509286E-1
4.288171875E0,8.620083332E-2,9.896661758E0,8.230499029E-1
4.293134375E0,8.141243458E-2,9.867951393E0,7.991175056E-1
4.298098438E0,2.877830528E-2,9.927767754E0,7.345123291E-1
4.303060938E0,-3.104800731E-2,9.930162430E0,7.440891862E-1
4.308025000E0,-2.625960298E-2,9.903844833E0,5.383027196E-1
4.312987500E0,-2.386540174E-2,9.927767754E0,6.172634959E-1
4.317951563E0,8.620083332E-2,9.870346069E0,5.957348347E-1
4.322914063E0,9.815269709E-2,9.901451111E0,5.957348347E-1
4.327876563E0,7.423940301E-2,9.951700211E0,6.364075541E-1
4.332840625E0,5.270116776E-2,9.958883286E0,6.699072123E-1
4.337803125E0,1.680729724E-2,9.975632668E0,6.651188135E-1
4.342767188E0,9.338344634E-2,9.925383568E0,8.015117049E-1
4.347729688E0,-3.104800731E-2,9.994767189E0,7.440891862E-1
4.352692188E0,1.202846877E-2,9.937344551E0,6.555515528E-1
4.357656250E0,6.227797270E-2,1.002109337E1,6.579458117E-1
4.362618750E0,-4.300943762E-2,9.899056435E0,7.464833260E-1
4.367582813E0,2.398990095E-2,9.956489563E0,7.225509286E-1
4.372545313E0,2.451662440E-3,9.896661758E0,7.034068704E-1
4.377509375E0,-3.344221041E-2,9.973237991E0,7.321181893E-1
4.382471875E0,-1.669237576E-2,9.934949875E0,5.981194377E-1
4.387434375E0,-6.694187969E-2,9.930162430E0,6.268403530E-1
4.392398438E0,-1.578640938E-1,9.884700775E0,5.765908360E-1
4.397360938E0,-1.865849346E-1,9.911018372E0,5.430911183E-1
4.402325000E0,-2.296518236E-1,9.911018372E0,5.981194377E-1
4.407287500E0,-3.469006717E-1,9.867951393E0,5.526583791E-1
4.412251563E0,-3.899675608E-1,9.846412659E0,5.263413191E-1
4.417214063E0,-4.473996758E-1,9.853595734E0,4.928416312E-1
4.422178125E0,-4.282556474E-1,9.800951958E0,3.755927682E-1
4.427140625E0,-4.258614480E-1,9.846412659E0,4.210538864E-1
4.432103125E0,-3.636505008E-1,9.781807899E0,4.401979446E-1
4.437067188E0,-3.636505008E-1,9.700452805E0,3.181606829E-1
4.442029688E0,-3.134010136E-1,9.717203140E0,3.277374804E-1
4.446993750E0,-3.301508427E-1,9.738740921E0,2.583439350E-1
4.451956250E0,-3.349392414E-1,9.683703423E0,2.726995945E-1
4.456920313E0,-3.110068142E-1,9.705241203E0,2.296326756E-1
4.461882813E0,-3.062183857E-1,9.683703423E0,2.296326756E-1
4.466845313E0,-2.894685566E-1,9.757884979E0,2.583439350E-1
4.471809375E0,-2.703245282E-1,9.693280220E0,3.851599991E-1
4.476771875E0,-2.870743573E-1,9.695664406E0,3.636313379E-1
4.481735938E0,-2.416132689E-1,9.729164124E0,4.904474318E-1
4.486698438E0,-1.171913818E-1,9.688490868E0,4.401979446E-1
4.491662500E0,-1.028357521E-1,9.712413788E0,4.689091742E-1
4.496625000E0,-2.386540174E-2,9.707635880E0,4.904474318E-1
4.501587500E0,5.748957023E-2,9.695664406E0,5.215529203E-1
4.506550000E0,5.509537086E-2,9.686098099E0,5.406969786E-1
4.511514063E0,6.705679744E-2,9.676529884E0,5.574467778E-1
4.516478125E0,9.338344634E-2,9.707635880E0,5.957348347E-1
4.521440625E0,1.172967330E-1,9.733952522E0,6.531573534E-1
4.526404688E0,1.675462276E-1,9.712413788E0,6.770898700E-1
4.531367188E0,2.034401149E-1,9.748308182E0,7.967232466E-1
4.536329688E0,2.297571748E-1,9.721991539E0,8.900492787E-1
4.541293750E0,1.292581707E-1,9.788990021E0,9.690100551E-1
4.546256250E0,4.791276529E-2,9.855990410E0,9.044048786E-1
4.551220313E0,-2.147120051E-2,9.848807335E0,9.163663387E-1
4.556182813E0,-7.890331000E-2,9.882307053E0,9.044048786E-1
4.561145313E0,-1.908657700E-2,9.970844269E0,8.685110211E-1
4.566107813E0,-1.387200505E-1,9.903844833E0,9.785868526E-1
4.571071875E0,-1.004415527E-1,9.956489563E0,1.012086511E0
4.576035938E0,-1.147971824E-1,9.951700211E0,9.139720798E-1
4.580996875E0,-4.540364072E-2,9.975632668E0,8.661168218E-1
4.585960938E0,-4.721365869E-3,9.968450546E0,8.972222805E-1
4.590925000E0,1.441309415E-2,9.951700211E0,8.685110211E-1
4.595887500E0,1.680729724E-2,1.004501629E1,8.661168218E-1
4.600851563E0,-4.779784381E-2,1.002826691E1,8.326171637E-1
4.605814063E0,-2.147120051E-2,9.987594604E0,8.541554213E-1
4.610776563E0,-2.336740959E-3,1.004263210E1,8.350113630E-1
4.615740625E0,9.338344634E-2,1.012876606E1,7.871560454E-1
4.620704688E0,6.945100427E-2,1.009766006E1,8.374055624E-1
4.625667188E0,3.116292879E-2,1.014073753E1,8.206557035E-1
4.630631250E0,-4.721365869E-3,1.018859291E1,8.302229643E-1
4.635593750E0,-5.019204319E-2,1.015030479E1,8.182615638E-1
4.640556250E0,-8.608591557E-2,1.022209167E1,8.613380194E-1
4.645520313E0,-1.722197086E-1,1.019815922E1,9.187605381E-1
4.650482813E0,-1.387200505E-1,1.015509319E1,8.948376179E-1
4.655446875E0,-1.530852467E-1,1.010962200E1,8.565496206E-1
4.660407813E0,-6.694187969E-2,1.010723686E1,7.991175056E-1
4.665371875E0,-4.540364072E-2,1.004980564E1,7.680120468E-1
4.670335938E0,-3.822103515E-2,9.989988327E0,7.177625299E-1
4.675298438E0,-5.497087166E-2,1.008330441E1,5.526583791E-1
4.680262500E0,-6.694187969E-2,1.006416130E1,6.100904346E-1
4.685225000E0,-9.565314651E-2,1.002109337E1,6.053020358E-1
4.690189063E0,-1.076145768E-1,1.001870060E1,6.555515528E-1
4.695151563E0,-3.104800731E-2,9.985199928E0,6.890512705E-1
4.700114063E0,-1.190397050E-2,1.001151752E1,7.081953287E-1
4.705078125E0,1.920149848E-2,9.966055870E0,7.680120468E-1
4.710040625E0,3.355713189E-2,1.005219936E1,7.512621880E-1
4.715003125E0,-1.669237576E-2,1.001151752E1,7.440891862E-1
4.719965625E0,1.005468965E-1,1.004980564E1,7.488679886E-1
4.724929688E0,8.620083332E-2,1.004023838E1,7.751946449E-1
4.729892188E0,1.053352952E-1,1.006176662E1,8.110885024E-1
4.734856250E0,7.423940301E-2,1.002109337E1,8.374055624E-1
4.739820313E0,5.509537086E-2,9.989988327E0,8.972222805E-1
4.744782813E0,3.834553435E-2,9.925383568E0,9.067991376E-1
4.749746875E0,4.552813992E-2,9.987594604E0,9.402987957E-1
4.754709375E0,3.355713189E-2,9.894268990E0,8.182615638E-1
4.759671875E0,3.355713189E-2,9.853595734E0,8.350113630E-1
4.764635938E0,-4.061523825E-2,9.875133514E0,7.991175056E-1
4.769598438E0,-1.669237576E-2,9.812912941E0,8.469727635E-1
4.774562500E0,-3.822103515E-2,9.836845398E0,7.440891862E-1
4.779525000E0,-4.540364072E-2,9.827268600E0,7.273392677E-1
4.784489063E0,-2.386540174E-2,9.745914459E0,6.699072123E-1
4.789451563E0,-1.429817267E-2,9.755491257E0,6.292344928E-1
4.794414063E0,-3.583640978E-2,9.719596863E0,6.316191554E-1
4.799378125E0,-8.847054094E-2,9.793779373E0,6.483689547E-1
4.804340625E0,2.451662440E-3,9.757884979E0,5.718024373E-1
4.809304688E0,-2.386540174E-2,9.786596298E0,6.005136967E-1
4.814267188E0,2.451662440E-3,9.822490692E0,7.058010697E-1
4.819229688E0,-1.100087836E-1,9.784202576E0,6.866570711E-1
4.824192188E0,-1.387200505E-1,9.815307617E0,6.746956110E-1
4.829156250E0,-1.985463500E-1,9.803345680E0,6.770898700E-1
4.834118750E0,-1.865849346E-1,9.800951958E0,7.393007874E-1
4.839082813E0,-2.392190546E-1,9.808135033E0,7.249451280E-1
4.844046875E0,-3.038241863E-1,9.860768318E0,6.579458117E-1
4.849007813E0,-2.966511548E-1,9.879913330E0,5.837638378E-1
4.853971875E0,-3.014395833E-1,9.903844833E0,5.335143209E-1
4.858934375E0,-3.684388995E-1,9.920595169E0,5.646198392E-1
4.863898438E0,-3.971501887E-1,9.927767754E0,5.789849758E-1
4.868860938E0,-4.162942171E-1,9.875133514E0,6.316191554E-1
4.873823438E0,-4.617553055E-1,9.951700211E0,5.526583791E-1
4.878787500E0,-4.785051644E-1,9.887095451E0,5.550525784E-1
4.883750000E0,-4.737167358E-1,9.927767754E0,5.885522366E-1
4.888714063E0,-4.737167358E-1,9.891883850E0,5.861580372E-1
4.893676563E0,-4.282556474E-1,9.877518654E0,5.670139790E-1
4.898640625E0,-4.186884165E-1,9.922988892E0,6.005136967E-1
4.903603125E0,-3.636505008E-1,9.846412659E0,6.076962948E-1
4.908567188E0,-2.966511548E-1,9.836845398E0,6.268403530E-1
4.913529688E0,-2.200750262E-1,9.812912941E0,5.263413191E-1
4.918493750E0,-1.147971824E-1,9.858384132E0,5.478699207E-1
4.923456250E0,-7.890331000E-2,9.812912941E0,4.760918021E-1
4.928418750E0,-1.669237576E-2,9.793779373E0,3.899484277E-1
4.933382813E0,-2.625960298E-2,9.791384697E0,3.803811967E-1
4.938346875E0,2.159569971E-2,9.781807899E0,4.617361724E-1
4.943309375E0,-3.822103515E-2,9.796163559E0,4.090924561E-1
4.948271875E0,1.680729724E-2,9.829663277E0,5.359085202E-1
4.953235938E0,5.746084207E-5,9.765057564E0,4.808706343E-1
4.958198438E0,-6.215347722E-2,9.808135033E0,4.736976027E-1
4.963162500E0,5.509537086E-2,9.836845398E0,5.430911183E-1
4.968125000E0,-2.386540174E-2,9.810519218E0,5.550525784E-1
4.973087500E0,2.398990095E-2,9.918201447E0,6.053020358E-1
4.978051563E0,3.595133126E-2,9.899056435E0,7.656177878E-1
4.983014063E0,5.988377333E-2,9.894268990E0,8.206557035E-1
4.987976563E0,1.101237014E-1,9.863162994E0,7.847618461E-1
4.992940625E0,3.834553435E-2,9.877518654E0,7.775887847E-1
4.997903125E0,5.270116776E-2,9.894268990E0,8.158673048E-1
5.002867188E0,-2.865380608E-2,9.908634186E0,8.517611623E-1
5.007831250E0,-9.804734588E-2,9.946911812E0,8.493670225E-1
5.012793750E0,-1.243644133E-1,9.951700211E0,8.326171637E-1
5.017757813E0,-1.650466919E-1,9.961267471E0,7.201567292E-1
5.022720313E0,-8.847054094E-2,9.906239510E0,7.105894685E-1
5.027682813E0,-1.794023216E-1,9.913412094E0,6.746956110E-1
5.032646875E0,-1.578640938E-1,9.915806770E0,7.010126710E-1
5.037607813E0,-1.435084492E-1,9.899056435E0,6.723014116E-1
5.042573438E0,-6.933607906E-2,9.903844833E0,7.273392677E-1
5.047535938E0,-1.429817267E-2,9.870346069E0,7.440891862E-1
5.052528125E0,4.845864139E-3,9.927767754E0,8.039059043E-1
5.057462500E0,-1.908657700E-2,9.911018372E0,8.039059043E-1
5.062425000E0,-1.908657700E-2,9.903844833E0,6.866570711E-1
5.067387500E0,1.202846877E-2,9.853595734E0,6.962338090E-1
5.072350000E0,-1.429817267E-2,9.889489174E0,6.627342105E-1
5.077315625E0,-1.267586201E-1,9.937344551E0,6.316191554E-1
5.082276563E0,-1.626524776E-1,9.903844833E0,6.220518947E-1
5.087240625E0,-1.985463500E-1,9.932557106E0,6.627342105E-1
5.092203125E0,-1.291528195E-1,9.982805252E0,6.053020358E-1
5.097167188E0,-1.411142498E-1,1.006416130E1,6.794840097E-1
5.102131250E0,-1.028357521E-1,1.006894875E1,6.818686724E-1
5.107093750E0,-1.147971824E-1,1.007851696E1,7.034068704E-1
5.112056250E0,-3.583640978E-2,1.002588272E1,8.302229643E-1
5.117018750E0,-1.147971824E-1,1.005698872E1,8.469727635E-1
5.121982813E0,-7.650911063E-2,1.003066158E1,8.182615638E-1
5.126945313E0,-9.565314651E-2,9.963662148E0,8.326171637E-1
5.131909375E0,-1.650466919E-1,9.946911812E0,7.058010697E-1
5.136871875E0,-1.028357521E-1,9.934949875E0,7.895502448E-1
5.141834375E0,-1.459026486E-1,9.934949875E0,7.560505867E-1
5.146800000E0,-3.583640978E-2,9.951700211E0,6.459843516E-1
5.151762500E0,-4.061523825E-2,9.946911812E0,5.071972609E-1
5.156725000E0,-9.509769268E-3,9.894268990E0,5.502641797E-1
5.161687500E0,3.355713189E-2,9.822490692E0,4.425921440E-1
5.166651563E0,3.116292879E-2,9.755491257E0,4.449863136E-1
5.171615625E0,7.240065839E-3,9.717203140E0,4.736976027E-1
5.176578125E0,-1.190397050E-2,9.769846916E0,4.401979446E-1
5.181540625E0,3.834553435E-2,9.743529320E0,5.502641797E-1
5.186503125E0,4.313393682E-2,9.798557281E0,5.359085202E-1
5.191467188E0,3.595133126E-2,9.745914459E0,6.172634959E-1
5.196431250E0,5.748957023E-2,9.745914459E0,6.220518947E-1
5.201393750E0,1.920149848E-2,9.748308182E0,7.129837275E-1
5.206356250E0,3.834553435E-2,9.760279655E0,6.723014116E-1
5.211320313E0,-1.028357521E-1,9.858384132E0,6.172634959E-1
5.216284375E0,-1.219702139E-1,9.870346069E0,5.861580372E-1
5.221245313E0,-1.100087836E-1,9.915806770E0,5.957348347E-1
5.226209375E0,-1.650466919E-1,9.872738838E0,5.550525784E-1
5.231173438E0,-1.339412183E-1,9.822490692E0,5.167644620E-1
5.236135938E0,-1.889695525E-1,9.805740356E0,4.713034034E-1
5.241098438E0,-1.937579513E-1,9.865556717E0,5.909464359E-1
5.246060938E0,-1.482968628E-1,9.839240074E0,5.335143209E-1
5.251025000E0,-2.679399252E-1,9.894268990E0,6.076962948E-1
5.255987500E0,-2.727187276E-1,9.887095451E0,6.746956110E-1
5.260951563E0,-2.487958670E-1,9.855990410E0,6.364075541E-1
5.265914063E0,-2.631514966E-1,9.841633797E0,6.675130129E-1
5.270878125E0,-1.698351055E-1,9.879913330E0,5.478699207E-1
5.275840625E0,-1.650466919E-1,9.829663277E0,4.760918021E-1
5.280804688E0,-1.004415527E-1,9.848807335E0,5.406969786E-1
5.285767188E0,-8.129751682E-2,9.853595734E0,4.234480858E-1
5.290731250E0,4.845864139E-3,9.836845398E0,4.497651756E-1
5.295693750E0,7.240065839E-3,9.841633797E0,5.024088621E-1
5.300656250E0,5.988377333E-2,9.760279655E0,6.244460940E-1
5.305620313E0,8.141243458E-2,9.777029037E0,6.579458117E-1
5.310582813E0,-1.669237576E-2,9.796163559E0,6.124846935E-1
5.315546875E0,-7.411490381E-2,9.810519218E0,7.584447861E-1
5.320509375E0,-2.386540174E-2,9.765057564E0,6.364075541E-1
5.325471875E0,-7.650911063E-2,9.781807899E0,6.244460940E-1
5.330435938E0,-8.608591557E-2,9.753096581E0,6.053020358E-1
5.335398438E0,-1.578640938E-1,9.882307053E0,5.287354589E-1
5.340362500E0,-1.841907203E-1,9.855990410E0,4.665149748E-1
5.345325000E0,-1.100087836E-1,9.820096016E0,4.545535445E-1
5.350287500E0,-4.061523825E-2,9.884700775E0,4.162654579E-1
5.355251563E0,-4.300943762E-2,9.855990410E0,3.875542283E-1
5.360214063E0,-1.482968628E-1,9.867951393E0,4.378037155E-1
5.365178125E0,-5.975927413E-2,9.872738838E0,4.593419433E-1
5.370140625E0,-5.497087166E-2,9.827268600E0,4.784860015E-1
5.375104688E0,-6.215347722E-2,9.832057953E0,6.124846935E-1
5.380067188E0,4.845864139E-3,9.844018936E0,4.904474318E-1
5.385029688E0,4.845864139E-3,9.896661758E0,5.215529203E-1
5.389993750E0,-5.258624628E-2,9.896661758E0,5.526583791E-1
5.394956250E0,-2.147120051E-2,9.906239510E0,5.335143209E-1
5.399920313E0,-2.147120051E-2,9.908634186E0,5.837638378E-1
5.404882813E0,-1.124029830E-1,9.970844269E0,5.670139790E-1
5.409846875E0,-1.147971824E-1,9.908634186E0,6.986184716E-1
5.414809375E0,-2.224692255E-1,9.958883286E0,6.627342105E-1
5.419771875E0,-2.799013257E-1,9.894268990E0,7.034068704E-1
5.424735938E0,-3.492948711E-1,9.915806770E0,5.741965771E-1
5.429698438E0,-3.062183857E-1,9.963662148E0,6.340133548E-1
5.434662500E0,-3.827945590E-1,9.937344551E0,5.813696384E-1
5.439625000E0,-4.641495049E-1,9.913412094E0,4.928416312E-1
5.444587500E0,-5.000433922E-1,9.999555588E0,4.832648337E-1
5.449551563E0,-4.091115892E-1,9.901451111E0,2.870551944E-1
5.454514063E0,-3.780061305E-1,9.911018372E0,3.564487696E-1
5.459478125E0,-2.870743573E-1,9.906239510E0,3.229490519E-1
5.464440625E0,-2.368248552E-1,9.927767754E0,3.755927682E-1
5.469404688E0,-2.129019946E-1,9.999555588E0,4.066982567E-1
5.474367188E0,-1.961521655E-1,9.927767754E0,3.947368264E-1
5.479329688E0,-2.583630979E-1,9.906239510E0,4.760918021E-1
5.484293750E0,-2.631514966E-1,9.887095451E0,5.119856596E-1
5.489256250E0,-2.440074682E-1,9.879913330E0,5.335143209E-1
5.494220313E0,-2.272576243E-1,9.930162430E0,5.071972609E-1
5.499182813E0,-1.913637519E-1,9.939739227E0,4.736976027E-1
5.504146875E0,-1.482968628E-1,9.922988892E0,5.574467778E-1
5.509109375E0,-1.315470189E-1,9.882307053E0,4.976204634E-1
5.514071875E0,-1.028357521E-1,9.875133514E0,5.837638378E-1
5.519035938E0,-5.736507475E-2,9.858384132E0,5.263413191E-1
5.523998438E0,-2.386540174E-2,9.829663277E0,5.191587210E-1
5.528962500E0,-5.497087166E-2,9.767452240E0,5.861580372E-1
5.533925000E0,-3.344221041E-2,9.777029037E0,5.287354589E-1
5.538887500E0,-3.104800731E-2,9.791384697E0,6.196576953E-1
5.543851563E0,-1.387200505E-1,9.853595734E0,6.196576953E-1
5.548814063E0,-1.004415527E-1,9.839240074E0,6.148692966E-1
5.553778125E0,-1.459026486E-1,9.820096016E0,6.268403530E-1
5.558740625E0,-2.392190546E-1,9.803345680E0,6.459843516E-1
5.563704688E0,-2.272576243E-1,9.844018936E0,5.550525784E-1
5.568667188E0,-2.942569554E-1,9.832057953E0,5.478699207E-1
5.573629688E0,-2.487958670E-1,9.834450722E0,5.335143209E-1
5.578593750E0,-3.181893826E-1,9.882307053E0,5.933406353E-1
5.583556250E0,-2.918627560E-1,9.901451111E0,6.244460940E-1
5.588520313E0,-2.846897244E-1,9.844018936E0,6.531573534E-1
5.593482813E0,-2.535746992E-1,9.796163559E0,5.909464359E-1
5.598446875E0,-2.224692255E-1,9.867951393E0,6.364075541E-1
5.603409375E0,-1.554698795E-1,9.872738838E0,5.215529203E-1
5.608371875E0,-1.674408913E-1,9.889489174E0,5.741965771E-1
5.613335938E0,-1.698351055E-1,9.863162994E0,6.268403530E-1
5.618298438E0,-1.674408913E-1,9.844018936E0,6.100904346E-1
5.623262500E0,-1.841907203E-1,9.884700775E0,6.579458117E-1
5.628225000E0,-1.219702139E-1,9.920595169E0,6.483689547E-1
5.633189063E0,-1.291528195E-1,9.851201057E0,6.770898700E-1
5.638151563E0,-2.865380608E-2,9.875133514E0,7.895502448E-1
5.643115625E0,-1.429817267E-2,9.870346069E0,7.704062462E-1
5.648078125E0,-9.325893968E-2,9.855990410E0,7.369065285E-1
5.653040625E0,-7.411490381E-2,9.834450722E0,7.680120468E-1
5.658004688E0,-7.650911063E-2,9.875133514E0,8.230499029E-1
5.662967188E0,-1.746139228E-1,9.860768318E0,8.015117049E-1
5.667931250E0,-1.267586201E-1,9.887095451E0,7.680120468E-1
5.672893750E0,-1.459026486E-1,9.908634186E0,7.369065285E-1
5.677857813E0,-1.435084492E-1,9.949306488E0,7.536563873E-1
5.682820313E0,-1.530852467E-1,9.918201447E0,6.555515528E-1
5.687782813E0,-1.746139228E-1,9.877518654E0,6.507631540E-1
5.692746875E0,-2.105077952E-1,9.867951393E0,5.957348347E-1
5.697709375E0,-1.817965209E-1,9.901451111E0,5.478699207E-1
5.702671875E0,-2.416132689E-1,9.879913330E0,6.483689547E-1
5.707635938E0,-1.841907203E-1,9.844018936E0,6.340133548E-1
5.712600000E0,-1.674408913E-1,9.853595734E0,5.981194377E-1
5.717562500E0,-1.937579513E-1,9.846412659E0,6.316191554E-1
5.722525000E0,-1.147971824E-1,9.865556717E0,6.603399515E-1
5.727489063E0,-8.129751682E-2,9.894268990E0,7.345123291E-1
5.732451563E0,-6.694187969E-2,9.863162994E0,7.105894685E-1
5.737415625E0,-4.540364072E-2,9.822490692E0,6.938396692E-1
5.742378125E0,-6.454767287E-2,9.829663277E0,7.129837275E-1
5.747340625E0,-8.129751682E-2,9.822490692E0,5.837638378E-1
5.752304688E0,-9.325893968E-2,9.786596298E0,6.148692966E-1
5.757267188E0,-8.369170874E-2,9.832057953E0,5.789849758E-1
5.762231250E0,-9.509769268E-3,9.760279655E0,6.029078960E-1
5.767193750E0,-6.694187969E-2,9.829663277E0,6.555515528E-1
5.772156250E0,-1.530852467E-1,9.803345680E0,5.765908360E-1
5.777118750E0,-1.387200505E-1,9.899056435E0,6.076962948E-1
5.782082813E0,-1.291528195E-1,9.836845398E0,5.550525784E-1
5.787046875E0,-7.411490381E-2,9.860768318E0,5.119856596E-1
5.792009375E0,-8.847054094E-2,9.872738838E0,4.760918021E-1
5.796973438E0,-7.890331000E-2,9.875133514E0,4.928416312E-1
5.801935938E0,-1.794023216E-1,9.824884415E0,5.048030615E-1
5.806898438E0,-2.296518236E-1,9.781807899E0,4.473805130E-1
5.811860938E0,-1.746139228E-1,9.853595734E0,5.765908360E-1
5.816825000E0,-1.770081222E-1,9.846412659E0,6.388017535E-1
5.821787500E0,-2.057193965E-1,9.834450722E0,6.292344928E-1
5.826751563E0,-1.889695525E-1,9.848807335E0,5.933406353E-1
5.831714063E0,-1.770081222E-1,9.815307617E0,5.622351766E-1
5.836676563E0,-2.224692255E-1,9.839240074E0,5.167644620E-1
5.841640625E0,-1.817965209E-1,9.863162994E0,4.760918021E-1
5.846604688E0,-1.243644133E-1,9.860768318E0,4.282364845E-1
5.851567188E0,-2.176903933E-1,9.851201057E0,5.024088621E-1
5.856529688E0,-2.009405643E-1,9.844018936E0,5.718024373E-1
5.861492188E0,-1.339412183E-1,9.848807335E0,6.483689547E-1
5.866456250E0,-2.416132689E-1,9.858384132E0,6.675130129E-1
5.871420313E0,-2.368248552E-1,9.836845398E0,6.555515528E-1
5.876382813E0,-1.602582783E-1,9.844018936E0,5.550525784E-1
5.881346875E0,-2.799013257E-1,9.872738838E0,6.483689547E-1
5.886309375E0,-2.727187276E-1,9.934949875E0,6.579458117E-1
5.891271875E0,-2.057193965E-1,9.894268990E0,6.411958933E-1
5.896235938E0,-1.650466919E-1,9.927767754E0,7.201567292E-1
5.901198438E0,-1.506910622E-1,9.858384132E0,6.746956110E-1
5.906160938E0,-1.889695525E-1,9.901451111E0,6.148692966E-1
5.911125000E0,-1.339412183E-1,9.839240074E0,6.340133548E-1
5.916089063E0,-3.822103515E-2,9.879913330E0,5.957348347E-1
5.921051563E0,-6.215347722E-2,9.906239510E0,5.430911183E-1
5.926014063E0,-7.411490381E-2,9.882307053E0,5.406969786E-1
5.930978125E0,-9.565314651E-2,9.899056435E0,7.153682709E-1
5.935942188E0,-1.698351055E-1,9.882307053E0,6.459843516E-1
5.940904688E0,-2.105077952E-1,9.865556717E0,7.728003860E-1
5.945867188E0,-1.985463500E-1,9.908634186E0,8.445882201E-1
5.950831250E0,-2.248634249E-1,9.889489174E0,7.440891862E-1
5.955793750E0,-1.841907203E-1,9.901451111E0,6.986184716E-1
5.960757813E0,-2.033347636E-1,9.894268990E0,5.957348347E-1
5.965720313E0,-2.176903933E-1,1.000434399E1,4.808706343E-1
5.970684375E0,-2.535746992E-1,9.951700211E0,4.952358305E-1
5.975646875E0,-3.038241863E-1,9.930162430E0,5.215529203E-1
5.980609375E0,-3.445064723E-1,9.961267471E0,6.244460940E-1
5.985573438E0,-3.181893826E-1,9.925383568E0,5.909464359E-1
5.990534375E0,-2.727187276E-1,9.918201447E0,5.741965771E-1
5.995500000E0,-2.248634249E-1,9.925383568E0,5.598409176E-1
6.000460938E0,-1.698351055E-1,9.951700211E0,5.550525784E-1
6.005426563E0,-2.464016527E-1,9.997160912E0,5.550525784E-1
6.010387500E0,-1.506910622E-1,1.001630592E1,5.454853773E-1
6.015351563E0,-2.296518236E-1,9.927767754E0,6.411958933E-1
6.020315625E0,-2.583630979E-1,9.887095451E0,6.770898700E-1
6.025278125E0,-2.727187276E-1,9.934949875E0,6.435901523E-1
6.030240625E0,-1.865849346E-1,9.889489174E0,6.770898700E-1
6.035203125E0,-2.009405643E-1,9.879913330E0,6.364075541E-1
6.040167188E0,-1.554698795E-1,9.822490692E0,5.622351766E-1
6.045160938E0,-1.698351055E-1,9.863162994E0,6.962338090E-1
6.050093750E0,-1.961521655E-1,9.855990410E0,5.789849758E-1
6.055056250E0,-1.171913818E-1,9.860768318E0,6.435901523E-1
6.060020313E0,-1.506910622E-1,9.844018936E0,6.603399515E-1
6.064984375E0,-9.086474776E-2,9.836845398E0,7.297335267E-1
6.069946875E0,-9.086474776E-2,9.817702293E0,6.555515528E-1
6.074909375E0,-1.267586201E-1,9.896661758E0,6.388017535E-1
6.079871875E0,-1.554698795E-1,9.894268990E0,5.837638378E-1
6.084835938E0,-2.344402373E-1,9.903844833E0,5.837638378E-1
6.089800000E0,-3.086126149E-1,9.906239510E0,6.292344928E-1
6.094762500E0,-3.875733614E-1,9.899056435E0,6.029078960E-1
6.099726563E0,-4.091115892E-1,9.891883850E0,6.029078960E-1
6.104689063E0,-3.756119311E-1,9.920595169E0,6.053020358E-1
6.109651563E0,-3.588621020E-1,9.879913330E0,6.603399515E-1
6.114615625E0,-3.540737033E-1,9.903844833E0,6.172634959E-1
6.119578125E0,-2.990453839E-1,9.884700775E0,4.689091742E-1
6.124542188E0,-3.421122730E-1,9.829663277E0,6.005136967E-1
6.129504688E0,-2.416132689E-1,9.853595734E0,5.741965771E-1
6.134468750E0,-2.535746992E-1,9.839240074E0,6.172634959E-1
6.139429688E0,-2.296518236E-1,9.839240074E0,6.627342105E-1
6.144393750E0,-2.248634249E-1,9.798557281E0,6.411958933E-1
6.149357813E0,-1.506910622E-1,9.832057953E0,6.699072123E-1
6.154320313E0,-1.363354176E-1,9.796163559E0,5.789849758E-1
6.159284375E0,-1.411142498E-1,9.738740921E0,6.699072123E-1
6.164246875E0,-7.890331000E-2,9.803345680E0,6.962338090E-1
6.169209375E0,-1.100087836E-1,9.844018936E0,7.775887847E-1
6.174173438E0,-1.219702139E-1,9.815307617E0,7.345123291E-1
6.179135938E0,-5.736507475E-2,9.841633797E0,8.134731650E-1
6.184100000E0,-9.086474776E-2,9.810519218E0,8.517611623E-1
6.189062500E0,-8.847054094E-2,9.867951393E0,8.230499029E-1
6.194026563E0,-1.076145768E-1,9.851201057E0,7.775887847E-1
6.198989063E0,-7.890331000E-2,9.824884415E0,8.039059043E-1
6.203953125E0,-1.052203774E-1,9.791384697E0,7.775887847E-1
6.208915625E0,-1.291528195E-1,9.781807899E0,7.919444442E-1
6.213878125E0,-1.339412183E-1,9.793779373E0,7.536563873E-1
6.218842188E0,-1.028357521E-1,9.810519218E0,8.278383017E-1
6.223804688E0,-3.583640978E-2,9.788990021E0,7.105894685E-1
6.228768750E0,3.355713189E-2,9.762663841E0,6.746956110E-1
6.233729688E0,3.116292879E-2,9.788990021E0,6.411958933E-1
6.238693750E0,7.184520364E-2,9.731558800E0,5.646198392E-1
6.243656250E0,-3.104800731E-2,9.748308182E0,6.579458117E-1
6.248620313E0,-3.822103515E-2,9.745914459E0,6.196576953E-1
6.253582813E0,-2.336740959E-3,9.800951958E0,6.316191554E-1
6.258545313E0,-6.215347722E-2,9.774634361E0,6.220518947E-1
6.263509375E0,-1.429817267E-2,9.865556717E0,6.914454103E-1
6.268471875E0,-4.540364072E-2,9.810519218E0,6.651188135E-1
6.273435938E0,-4.540364072E-2,9.820096016E0,7.512621880E-1
6.278398438E0,-6.933607906E-2,9.846412659E0,6.938396692E-1
6.283362500E0,-1.554698795E-1,9.872738838E0,7.129837275E-1
6.288326563E0,-2.655456960E-1,9.860768318E0,7.297335267E-1
6.293289063E0,-2.535746992E-1,9.853595734E0,7.058010697E-1
6.298251563E0,-2.368248552E-1,9.808135033E0,6.723014116E-1
6.303214063E0,-3.157951832E-1,9.791384697E0,7.034068704E-1
6.308178125E0,-3.492948711E-1,9.829663277E0,6.124846935E-1
6.313140625E0,-3.516891003E-1,9.891883850E0,6.842628121E-1
6.318104688E0,-3.014395833E-1,9.968450546E0,6.651188135E-1
6.323067188E0,-3.923617899E-1,9.913412094E0,6.603399515E-1
6.328031250E0,-3.923617899E-1,9.946911812E0,5.933406353E-1
6.332993750E0,-3.492948711E-1,9.942132950E0,6.029078960E-1
6.337956250E0,-3.445064723E-1,9.946911812E0,4.689091742E-1
6.342920313E0,-4.019385576E-1,9.944517136E0,4.019098580E-1
6.347882813E0,-4.115057886E-1,1.003544903E1,3.851599991E-1
6.352846875E0,-3.684388995E-1,1.002826691E1,4.449863136E-1
6.357809375E0,-3.540737033E-1,1.004501629E1,5.143703222E-1
6.362773438E0,-3.851887584E-1,1.010244942E1,6.172634959E-1
6.367735938E0,-3.875733614E-1,1.015509319E1,7.034068704E-1
6.372698438E0,-3.229682446E-1,1.010962200E1,6.818686724E-1
6.377662500E0,-3.516891003E-1,1.013355446E1,7.177625299E-1
6.382626563E0,-3.732177317E-1,1.011680508E1,7.680120468E-1
6.387589063E0,-2.918627560E-1,1.016466045E1,7.871560454E-1
6.392553125E0,-1.937579513E-1,1.016944790E1,7.799734473E-1
6.397515625E0,-1.530852467E-1,1.002348804E1,8.397997618E-1
6.402479688E0,-1.435084492E-1,1.013834286E1,8.541554213E-1
6.407442188E0,-1.339412183E-1,1.010723686E1,9.283373356E-1
6.412404688E0,-1.482968628E-1,1.006894875E1,9.737984538E-1
6.417368750E0,-1.650466919E-1,9.997160912E0,9.211547375E-1
6.422331250E0,-1.243644133E-1,1.003544903E1,9.737984538E-1
6.427295313E0,-9.086474776E-2,9.934949875E0,9.091932774E-1
6.432257813E0,-2.865380608E-2,9.899056435E0,7.943387032E-1
6.437221875E0,-9.804734588E-2,9.899056435E0,6.699072123E-1
6.442182813E0,-1.578640938E-1,9.903844833E0,7.680120468E-1
6.447146875E0,-1.219702139E-1,9.829663277E0,6.938396692E-1
6.452110938E0,-9.565314651E-2,9.812912941E0,6.699072123E-1
6.457073438E0,-4.540364072E-2,9.781807899E0,6.053020358E-1
6.462035938E0,-6.454767287E-2,9.765057564E0,5.071972609E-1
6.466998438E0,-1.411142498E-1,9.743529320E0,4.569477439E-1
6.471962500E0,-1.124029830E-1,9.721991539E0,3.181606829E-1
6.476925000E0,-1.746139228E-1,9.707635880E0,3.014108241E-1
6.481889063E0,-1.817965209E-1,9.769846916E0,3.708043694E-1
6.486851563E0,-2.703245282E-1,9.786596298E0,3.540545404E-1
6.491814063E0,-3.014395833E-1,9.741134644E0,4.210538864E-1
6.496778125E0,-2.846897244E-1,9.788990021E0,6.459843516E-1
6.501740625E0,-1.913637519E-1,9.836845398E0,7.943387032E-1
6.506704688E0,-1.985463500E-1,9.827268600E0,9.642215967E-1
6.511667188E0,-2.535746992E-1,9.822490692E0,9.498660564E-1
6.516631250E0,-1.674408913E-1,9.844018936E0,1.021653771E0
6.521593750E0,-1.291528195E-1,9.743529320E0,9.833656549E-1
6.526556250E0,-1.100087836E-1,9.695664406E0,9.211547375E-1
6.531520313E0,-1.841907203E-1,9.729164124E0,8.804724813E-1
6.536482813E0,-1.171913818E-1,9.714808464E0,8.350113630E-1
6.541446875E0,-3.104800731E-2,9.731558800E0,7.751946449E-1
6.546409375E0,-1.219702139E-1,9.774634361E0,7.728003860E-1
6.551371875E0,-1.435084492E-1,9.750701904E0,8.445882201E-1
6.556335938E0,-1.889695525E-1,9.733952522E0,9.091932774E-1
6.561298438E0,-2.176903933E-1,9.772240639E0,8.661168218E-1
6.566262500E0,-2.296518236E-1,9.769846916E0,9.426929951E-1
6.571225000E0,-2.511900663E-1,9.755491257E0,8.828666210E-1
6.576189063E0,-2.535746992E-1,9.786596298E0,7.919444442E-1
6.581151563E0,-1.961521655E-1,9.724386215E0,7.632332444E-1
6.586115625E0,-1.411142498E-1,9.779414177E0,7.393007874E-1
6.591078125E0,-1.076145768E-1,9.733952522E0,7.440891862E-1
6.596040625E0,-9.325893968E-2,9.719596863E0,6.794840097E-1
6.601004688E0,3.355713189E-2,9.695664406E0,7.512621880E-1
6.605967188E0,1.441309415E-2,9.738740921E0,8.709052205E-1
6.610931250E0,5.270116776E-2,9.733952522E0,9.355103970E-1
6.615893750E0,2.159569971E-2,9.748308182E0,9.498660564E-1
6.620857813E0,1.920149848E-2,9.788990021E0,9.761926532E-1
6.625820313E0,2.451662440E-3,9.812912941E0,8.661168218E-1
6.630784375E0,-8.129751682E-2,9.829663277E0,7.967232466E-1
6.635746875E0,-8.129751682E-2,9.855990410E0,8.613380194E-1
6.640709375E0,-5.497087166E-2,9.834450722E0,9.115875363E-1
6.645673438E0,-2.336740959E-3,9.903844833E0,8.613380194E-1
6.650635938E0,6.705679744E-2,9.815307617E0,8.110885024E-1
6.655600000E0,2.877830528E-2,9.803345680E0,8.445882201E-1
6.660562500E0,9.815269709E-2,9.815307617E0,8.972222805E-1
6.665525000E0,-2.336740959E-3,9.824884415E0,9.331161380E-1
6.670489063E0,-2.865380608E-2,9.922988892E0,8.900492787E-1
6.675451563E0,-3.822103515E-2,9.875133514E0,9.211547375E-1
6.680415625E0,-8.129751682E-2,9.896661758E0,8.469727635E-1
6.685378125E0,-1.267586201E-1,9.918201447E0,9.235489368E-1
6.690342188E0,-1.554698795E-1,9.875133514E0,9.091932774E-1
6.695304688E0,-1.674408913E-1,9.891883850E0,9.737984538E-1
6.700267188E0,-1.291528195E-1,9.853595734E0,1.002509713E0
6.705231250E0,-1.291528195E-1,9.839240074E0,9.402987957E-1
6.710193750E0,-1.291528195E-1,9.877518654E0,8.493670225E-1
6.715157813E0,-1.387200505E-1,9.927767754E0,8.182615638E-1
6.720120313E0,-1.578640938E-1,9.884700775E0,8.661168218E-1
6.725082813E0,-1.530852467E-1,9.927767754E0,7.775887847E-1
6.730046875E0,-1.530852467E-1,9.879913330E0,6.842628121E-1
6.735009375E0,-1.411142498E-1,9.865556717E0,7.416949272E-1
6.739973438E0,-1.746139228E-1,9.796163559E0,7.081953287E-1
6.744935938E0,-1.315470189E-1,9.887095451E0,7.488679886E-1
6.749900000E0,-1.267586201E-1,9.832057953E0,7.345123291E-1
6.754862500E0,-1.411142498E-1,9.911018372E0,7.775887847E-1
6.759825000E0,-9.086474776E-2,9.863162994E0,7.799734473E-1
6.764789063E0,-1.052203774E-1,9.860768318E0,7.799734473E-1
6.769751563E0,-4.779784381E-2,9.839240074E0,7.919444442E-1
6.774715625E0,-1.124029830E-1,9.872738838E0,8.350113630E-1
6.779678125E0,-4.540364072E-2,9.870346069E0,7.919444442E-1
6.784642188E0,-5.258624628E-2,9.887095451E0,9.307219982E-1
6.789604688E0,1.680729724E-2,9.903844833E0,8.876550794E-1
6.794568750E0,7.240065839E-3,9.899056435E0,9.331161380E-1
6.799531250E0,9.576806426E-2,9.841633797E0,9.067991376E-1
6.804493750E0,1.053352952E-1,9.803345680E0,8.685110211E-1
6.809457813E0,1.220851392E-1,9.848807335E0,9.283373356E-1
6.814420313E0,1.364407688E-1,9.805740356E0,9.402987957E-1
6.819384375E0,1.172967330E-1,9.774634361E0,9.522601962E-1
6.824346875E0,1.364407688E-1,9.784202576E0,9.666158557E-1
6.829309375E0,9.576806426E-2,9.781807899E0,9.187605381E-1
6.834273438E0,8.141243458E-2,9.788990021E0,8.709052205E-1
6.839235938E0,9.098923951E-2,9.781807899E0,8.924434781E-1
6.844200000E0,8.620083332E-2,9.779414177E0,9.139720798E-1
6.849162500E0,3.116292879E-2,9.810519218E0,9.857599139E-1
6.854126563E0,-2.147120051E-2,9.817702293E0,9.953366518E-1
6.859089063E0,1.202846877E-2,9.875133514E0,1.114970207E0
6.864051563E0,-4.061523825E-2,9.884700775E0,1.103008628E0
6.869015625E0,-1.578640938E-1,9.848807335E0,1.110191226E0
6.873978125E0,-1.530852467E-1,9.894268990E0,1.033615232E0
6.878942188E0,-2.966511548E-1,9.891883850E0,1.021653771E0
6.883904688E0,-2.631514966E-1,9.939739227E0,1.050364971E0
6.888867188E0,-2.607572973E-1,9.968450546E0,1.055153489E0
6.893831250E0,-3.421122730E-1,9.963662148E0,1.098220348E0
6.898793750E0,-3.110068142E-1,9.915806770E0,1.196325064E0
6.903757813E0,-2.272576243E-1,9.973237991E0,1.158046603E0
6.908720313E0,-1.482968628E-1,9.968450546E0,1.170008063E0
6.913684375E0,-1.578640938E-1,1.001151752E1,1.186757922E0
6.918646875E0,-7.650911063E-2,9.973237991E0,1.213074923E0
6.923609375E0,3.595133126E-2,9.956489563E0,1.172402263E0
6.928573438E0,7.423940301E-2,9.961267471E0,1.289651155E0
6.933535938E0,8.859504014E-2,9.903844833E0,1.198719382E0
6.938500000E0,9.338344634E-2,9.848807335E0,1.220257521E0
6.943462500E0,1.914786696E-1,9.793779373E0,1.105402946E0
6.948426563E0,2.656510174E-1,9.686098099E0,1.040797710E0
6.953389063E0,2.943718731E-1,9.638241768E0,1.019259572E0
6.958353125E0,4.044381380E-1,9.623887062E0,9.809715152E-1
6.963315625E0,4.714374840E-1,9.628664970E0,9.450871348E-1
6.968278125E0,5.647538304E-1,9.573637009E0,9.929425120E-1
6.973240625E0,5.671480894E-1,9.609530449E0,9.474717975E-1
6.978204688E0,5.671480894E-1,9.604742050E0,1.002509713E0
6.983167188E0,5.695422888E-1,9.595166206E0,1.009692311E0
6.988131250E0,5.192927718E-1,9.619097710E0,9.522601962E-1
6.993093750E0,4.881873131E-1,9.676529884E0,1.014471173E0
6.998056250E0,4.163995683E-1,9.731558800E0,1.088653088E0
7.003020313E0,3.948709071E-1,9.817702293E0,1.203507662E0
7.007984375E0,2.871892750E-1,9.817702293E0,1.225046039E0
7.012946875E0,1.962575018E-1,9.863162994E0,1.277689695E0
7.017909375E0,1.077295020E-1,9.934949875E0,1.213074923E0
7.022871875E0,8.380663395E-2,9.949306488E0,1.256151438E0
7.027835938E0,4.791276529E-2,9.966055870E0,1.172402263E0
7.032798438E0,-4.540364072E-2,9.930162430E0,1.256151438E0
7.037792188E0,-7.115567569E-3,9.918201447E0,1.124547005E0
7.042726563E0,1.680729724E-2,9.961267471E0,1.126941204E0
7.047689063E0,7.240065839E-3,9.944517136E0,1.088653088E0
7.052653125E0,1.680729724E-2,9.875133514E0,1.067114830E0
7.057615625E0,5.509537086E-2,9.899056435E0,1.014471173E0
7.062579688E0,1.680729724E-2,9.954094887E0,9.331161380E-1
7.067542188E0,8.859504014E-2,9.920595169E0,9.259431362E-1
7.072504688E0,5.748957023E-2,9.994767189E0,9.690100551E-1
7.077468750E0,3.116292879E-2,9.951700211E0,8.948376179E-1
7.082429688E0,2.877830528E-2,9.985199928E0,8.948376179E-1
7.087393750E0,-1.100087836E-1,9.922988892E0,8.278383017E-1
7.092357813E0,-1.004415527E-1,9.922988892E0,8.086943030E-1
7.097320313E0,-7.650911063E-2,9.942132950E0,7.775887847E-1
7.102282813E0,-1.219702139E-1,9.939739227E0,7.751946449E-1
7.107246875E0,-1.530852467E-1,9.973237991E0,7.416949272E-1
7.112209375E0,-2.176903933E-1,1.004023838E1,8.110885024E-1
7.117173438E0,-2.057193965E-1,9.975632668E0,8.876550794E-1
7.122135938E0,-2.200750262E-1,1.002109337E1,1.002509713E0
7.127098438E0,-2.990453839E-1,9.944517136E0,1.043192029E0
7.132062500E0,-3.612563312E-1,1.000673866E1,1.019259572E0
7.137025000E0,-2.464016527E-1,9.946911812E0,1.088653088E0
7.141989063E0,-1.722197086E-1,9.989988327E0,1.009692311E0
7.146951563E0,-1.770081222E-1,9.997160912E0,1.016865373E0
7.151915625E0,-1.937579513E-1,9.942132950E0,9.522601962E-1
7.156878125E0,-1.387200505E-1,1.001151752E1,1.062336087E0
7.161840625E0,-1.746139228E-1,9.982805252E0,1.146075726E0
7.166804688E0,-2.081135809E-1,9.975632668E0,1.105402946E0
7.171767188E0,-1.387200505E-1,9.958883286E0,1.170008063E0
7.176731250E0,-1.291528195E-1,1.004980564E1,1.181969523E0
7.181695313E0,-1.291528195E-1,9.894268990E0,1.146075726E0
7.186657813E0,-1.267586201E-1,9.958883286E0,1.057547569E0
7.191620313E0,-2.147120051E-2,9.877518654E0,1.038403511E0
7.196582813E0,1.029410958E-1,9.887095451E0,1.160440803E0
7.201546875E0,8.141243458E-2,9.863162994E0,1.047970772E0
7.206509375E0,1.053352952E-1,9.748308182E0,1.076691628E0
7.211473438E0,2.082285136E-1,9.765057564E0,1.138902545E0
7.216437500E0,1.531905979E-1,9.745914459E0,1.131719947E0
7.221400000E0,9.338344634E-2,9.762663841E0,1.138902545E0
7.226362500E0,1.364407688E-1,9.719596863E0,1.031220913E0
7.231325000E0,1.292581707E-1,9.676529884E0,9.666158557E-1
7.236289063E0,1.388349682E-1,9.714808464E0,9.426929951E-1
7.241251563E0,1.507963985E-1,9.645415306E0,9.163663387E-1
7.246214063E0,1.149025261E-1,9.657385826E0,9.307219982E-1
7.251178125E0,2.441223711E-1,9.678915024E0,9.331161380E-1
7.256142188E0,1.890844703E-1,9.676529884E0,1.014471173E0
7.261104688E0,2.273725420E-1,9.595166206E0,1.076691628E0
7.266068750E0,1.771230400E-1,9.623887062E0,1.052759290E0
7.271031250E0,2.321513742E-1,9.578415871E0,1.012086511E0
7.275995313E0,2.919777036E-1,9.595166206E0,9.235489368E-1
7.280957813E0,3.302561939E-1,9.592781067E0,1.002509713E0
7.285920313E0,2.943718731E-1,9.566453934E0,9.211547375E-1
7.290884375E0,2.465070039E-1,9.616703987E0,8.996165395E-1
7.295846875E0,1.412291676E-1,9.719596863E0,9.522601962E-1
7.300810938E0,1.680729724E-2,9.760279655E0,9.833656549E-1
7.305773438E0,-7.115567569E-3,9.757884979E0,9.857599139E-1
7.310737500E0,-1.387200505E-1,9.798557281E0,9.355103970E-1
7.315700000E0,-1.315470189E-1,9.872738838E0,9.474717975E-1
7.320664063E0,-2.200750262E-1,9.844018936E0,8.637226820E-1
7.325625000E0,-2.559688985E-1,9.879913330E0,8.063001037E-1
7.330589063E0,-3.564679027E-1,9.796163559E0,6.818686724E-1
7.335553125E0,-3.540737033E-1,9.860768318E0,6.531573534E-1
7.340514063E0,-2.727187276E-1,9.951700211E0,6.172634959E-1
7.345478125E0,-3.588621020E-1,9.877518654E0,6.124846935E-1
7.350442188E0,-3.684388995E-1,9.958883286E0,6.316191554E-1
7.355404688E0,-3.756119311E-1,9.896661758E0,6.723014116E-1
7.360367188E0,-3.708235621E-1,9.901451111E0,6.914454103E-1
7.365331250E0,-3.995443583E-1,9.884700775E0,6.435901523E-1
7.370293750E0,-3.612563312E-1,9.906239510E0,6.842628121E-1
7.375256250E0,-4.210730195E-1,9.894268990E0,6.914454103E-1
7.380220313E0,-3.253624141E-1,9.930162430E0,6.866570711E-1
7.385182813E0,-3.804003298E-1,1.001391125E1,7.249451280E-1
7.390146875E0,-3.732177317E-1,9.927767754E0,7.967232466E-1
7.395109375E0,-3.397180736E-1,9.913412094E0,8.637226820E-1
7.400073438E0,-2.248634249E-1,9.946911812E0,8.804724813E-1
7.405035938E0,-1.698351055E-1,9.901451111E0,8.421939611E-1
7.409998438E0,-1.219702139E-1,9.951700211E0,9.187605381E-1
7.414962500E0,9.634267539E-3,9.887095451E0,9.833656549E-1
7.419925000E0,1.202846877E-2,9.968450546E0,1.050364971E0
7.424889063E0,1.149025261E-1,9.908634186E0,1.158046603E0
7.429851563E0,5.988377333E-2,9.911018372E0,1.222651720E0
7.434815625E0,7.663360238E-2,9.894268990E0,1.311189294E0
7.439778125E0,7.902780920E-2,9.932557106E0,1.275295496E0
7.444740625E0,7.184520364E-2,9.908634186E0,1.208296180E0
7.449706250E0,1.244793311E-1,9.870346069E0,1.215469122E0
7.454668750E0,1.101237014E-1,9.820096016E0,1.177190661E0
7.459631250E0,1.292581707E-1,9.872738838E0,1.153258204E0
7.464593750E0,8.620083332E-2,9.882307053E0,1.146075726E0
7.469557813E0,5.270116776E-2,9.872738838E0,1.105402946E0
7.474520313E0,2.638410218E-2,9.911018372E0,1.026442170E0
7.479482813E0,7.240065839E-3,9.882307053E0,1.122152686E0
7.484446875E0,-8.129751682E-2,9.879913330E0,9.905482531E-1
7.489409375E0,-1.530852467E-1,9.870346069E0,1.002509713E0
7.494373438E0,-1.841907203E-1,9.879913330E0,1.021653771E0
7.499335938E0,-1.626524776E-1,9.820096016E0,9.809715152E-1
7.504300000E0,-1.028357521E-1,9.800951958E0,9.259431362E-1
7.509262500E0,-1.429817267E-2,9.820096016E0,8.086943030E-1
7.514225000E0,-7.172070444E-2,9.832057953E0,7.895502448E-1
7.519189063E0,-5.736507475E-2,9.788990021E0,8.206557035E-1
7.524151563E0,-3.822103515E-2,9.867951393E0,7.799734473E-1
7.529115625E0,2.638410218E-2,9.810519218E0,7.680120468E-1
7.534078125E0,-7.411490381E-2,9.855990410E0,8.015117049E-1
7.539042188E0,-1.459026486E-1,9.786596298E0,8.134731650E-1
7.544004688E0,-9.086474776E-2,9.846412659E0,7.919444442E-1
7.548967188E0,-3.344221041E-2,9.927767754E0,8.780878186E-1
7.553931250E0,-9.565314651E-2,9.915806770E0,9.355103970E-1
7.558893750E0,-1.937579513E-1,9.944517136E0,9.307219982E-1
7.563857813E0,-1.219702139E-1,9.925383568E0,1.000115514E0
7.568820313E0,-4.721365869E-3,9.920595169E0,1.036009431E0
7.573782813E0,-4.779784381E-2,9.899056435E0,1.081470490E0
7.578746875E0,-1.004415527E-1,9.846412659E0,1.038403511E0
7.583709375E0,-1.674408913E-1,9.844018936E0,9.833656549E-1
7.588673438E0,-4.779784381E-2,9.791384697E0,8.661168218E-1
7.593635938E0,-1.339412183E-1,9.829663277E0,8.589437604E-1
7.598600000E0,-7.172070444E-2,9.812912941E0,9.283373356E-1
7.603562500E0,7.240065839E-3,9.791384697E0,8.780878186E-1
7.608525000E0,1.680729724E-2,9.743529320E0,9.115875363E-1
7.613489063E0,3.595133126E-2,9.779414177E0,8.206557035E-1
7.618451563E0,-2.336740959E-3,9.757884979E0,8.326171637E-1
7.623415625E0,2.159569971E-2,9.724386215E0,8.732994199E-1
7.628378125E0,-6.933607906E-2,9.738740921E0,9.546543956E-1
7.633342188E0,-7.411490381E-2,9.726778984E0,1.098220348E0
7.638304688E0,-1.315470189E-1,9.724386215E0,1.122152686E0
7.643267188E0,-1.315470189E-1,9.724386215E0,1.055153489E0
7.648231250E0,-2.009405643E-1,9.777029037E0,1.098220348E0
7.653193750E0,-2.655456960E-1,9.753096581E0,1.019259572E0
7.658157813E0,-2.775071263E-1,9.786596298E0,1.052759290E0
7.663120313E0,-3.349392414E-1,9.810519218E0,1.033615232E0
7.668084375E0,-4.378228784E-1,9.872738838E0,1.033615232E0
7.673046875E0,-4.067174196E-1,9.920595169E0,9.666158557E-1
7.678009375E0,-4.689379334E-1,1.000913239E1,9.379045963E-1
7.682973438E0,-3.923617899E-1,9.944517136E0,9.594427943E-1
7.687935938E0,-3.827945590E-1,9.911018372E0,9.522601962E-1
7.692900000E0,-2.870743573E-1,9.858384132E0,8.493670225E-1
7.697862500E0,-2.392190546E-1,9.848807335E0,7.847618461E-1
7.702826563E0,-2.200750262E-1,9.982805252E0,7.895502448E-1
7.707790625E0,-2.511900663E-1,9.925383568E0,7.105894685E-1
7.712751563E0,-1.985463500E-1,9.949306488E0,7.728003860E-1
7.717715625E0,-1.985463500E-1,9.918201447E0,8.110885024E-1
7.722678125E0,-7.172070444E-2,9.946911812E0,8.326171637E-1
7.727642188E0,-6.215347722E-2,9.915806770E0,8.445882201E-1
7.732604688E0,-2.147120051E-2,9.920595169E0,9.426929951E-1
7.737568750E0,6.227797270E-2,9.980412483E0,1.045586228E0
7.742531250E0,7.663360238E-2,9.968450546E0,1.153258204E0
7.747495313E0,1.053352952E-1,9.975632668E0,1.251363039E0
7.752457813E0,6.227797270E-2,9.951700211E0,1.239401579E0
7.757420313E0,1.053352952E-1,9.877518654E0,1.272901297E0
7.762384375E0,1.340465695E-1,9.815307617E0,1.186757922E0
7.767346875E0,1.603731960E-1,9.848807335E0,1.201113582E0
7.772310938E0,1.507963985E-1,9.865556717E0,1.162825465E0
7.777273438E0,1.771230400E-1,9.918201447E0,1.146075726E0
7.782235938E0,7.663360238E-2,9.820096016E0,1.158046603E0
7.787200000E0,8.141243458E-2,9.817702293E0,1.105402946E0
7.792162500E0,-4.721365869E-3,9.877518654E0,1.069509029E0
7.797126563E0,4.791276529E-2,9.860768318E0,1.043192029E0
7.802089063E0,4.552813992E-2,9.844018936E0,9.307219982E-1
7.807053125E0,-7.411490381E-2,9.851201057E0,9.857599139E-1
7.812015625E0,-9.325893968E-2,9.769846916E0,9.809715152E-1
7.816979688E0,-9.086474776E-2,9.841633797E0,1.002509713E0
7.821942188E0,-7.172070444E-2,9.762663841E0,9.570485950E-1
7.826904688E0,-3.104800731E-2,9.767452240E0,9.259431362E-1
7.831868750E0,-1.052203774E-1,9.808135033E0,8.924434781E-1
7.836831250E0,-2.865380608E-2,9.707635880E0,9.498660564E-1
7.841793750E0,4.073973373E-2,9.765057564E0,9.379045963E-1
7.846757813E0,1.202846877E-2,9.717203140E0,9.714042544E-1
7.851720313E0,5.509537086E-2,9.741134644E0,9.929425120E-1
7.856684375E0,4.552813992E-2,9.733952522E0,1.004903913E0
7.861646875E0,4.552813992E-2,9.729164124E0,9.211547375E-1
7.866610938E0,5.270116776E-2,9.693280220E0,8.876550794E-1
7.871573438E0,4.313393682E-2,9.695664406E0,8.541554213E-1
7.876537500E0,7.240065839E-3,9.688490868E0,7.177625299E-1
7.881500000E0,-6.215347722E-2,9.712413788E0,7.847618461E-1
7.886462500E0,-1.195855886E-1,9.700452805E0,7.177625299E-1
7.891426563E0,-7.890331000E-2,9.695664406E0,7.081953287E-1
7.896389063E0,-5.975927413E-2,9.741134644E0,7.512621880E-1
7.901353125E0,-4.300943762E-2,9.769846916E0,7.129837275E-1
7.906315625E0,-8.369170874E-2,9.755491257E0,7.393007874E-1
7.911278125E0,-1.482968628E-1,9.817702293E0,8.661168218E-1
7.916242188E0,-2.607572973E-1,9.786596298E0,8.661168218E-1
7.921204688E0,-3.445064723E-1,9.774634361E0,9.307219982E-1
7.926168750E0,-2.870743573E-1,9.855990410E0,9.857599139E-1
7.931131250E0,-3.684388995E-1,9.855990410E0,9.785868526E-1
7.936095313E0,-3.708235621E-1,9.925383568E0,1.007298112E0
7.941057813E0,-3.205740452E-1,9.896661758E0,1.028836250E0
7.946021875E0,-2.440074682E-1,9.863162994E0,1.069509029E0
7.950984375E0,-1.482968628E-1,9.851201057E0,9.067991376E-1
7.955946875E0,-1.147971824E-1,9.829663277E0,9.379045963E-1
7.960910938E0,-5.019204319E-2,9.870346069E0,8.493670225E-1
7.965873438E0,-8.847054094E-2,9.772240639E0,8.637226820E-1
7.970835938E0,-1.076145768E-1,9.822490692E0,8.326171637E-1
7.975800000E0,-9.509769268E-3,9.839240074E0,8.206557035E-1
7.980762500E0,9.634267539E-3,9.781807899E0,8.876550794E-1
7.985726563E0,7.902780920E-2,9.762663841E0,8.374055624E-1
7.990689063E0,4.791276529E-2,9.784202576E0,8.230499029E-1
7.995653125E0,3.116292879E-2,9.788990021E0,7.393007874E-1
8.000615625E0,1.220851392E-1,9.707635880E0,7.871560454E-1
8.005579688E0,9.576806426E-2,9.736346245E0,8.493670225E-1
8.010542188E0,1.292581707E-1,9.860768318E0,8.421939611E-1
8.015506250E0,1.412291676E-1,9.889489174E0,8.326171637E-1
8.020468750E0,1.507963985E-1,9.894268990E0,9.211547375E-1
8.025431250E0,6.227797270E-2,9.949306488E0,1.028836250E0
8.030425000E0,2.451662440E-3,1.002109337E1,1.047970772E0
8.035357813E0,-6.694187969E-2,1.002109337E1,1.114970207E0
8.040320313E0,-1.363354176E-1,1.006894875E1,1.114970207E0
8.045284375E0,-8.369170874E-2,1.010723686E1,1.124547005E0
8.050246875E0,-1.052203774E-1,1.013355446E1,1.095826149E0
8.055210938E0,-8.847054094E-2,1.017423630E1,1.119758487E0
8.060173438E0,-9.086474776E-2,1.013594818E1,1.098220348E0
8.065137500E0,-1.100087836E-1,1.018859291E1,1.167613864E0
8.070100000E0,-7.890331000E-2,1.021730328E1,1.162825465E0
8.075062500E0,-9.804734588E-2,1.014073753E1,1.251363039E0
8.080026563E0,-1.190397050E-2,1.015030479E1,1.232218981E0
8.084989063E0,5.746084207E-5,1.005219936E1,1.213074923E0
8.089953125E0,5.746084207E-5,9.989988327E0,1.136508465E0
8.094915625E0,4.791276529E-2,9.992383003E0,1.129325747E0
8.099879688E0,5.509537086E-2,9.918201447E0,1.143691063E0
8.104842188E0,1.579789966E-1,9.872738838E0,1.110191226E0
8.109804688E0,2.417281866E-1,9.834450722E0,1.091047287E0
8.114768750E0,2.201899439E-1,9.820096016E0,1.062336087E0
8.119731250E0,2.536896169E-1,9.803345680E0,1.026442170E0
8.124695313E0,2.106227130E-1,9.774634361E0,9.761926532E-1
8.129657813E0,2.130073458E-1,9.805740356E0,9.115875363E-1
8.134621875E0,1.579789966E-1,9.822490692E0,9.546543956E-1
8.139584375E0,1.747288406E-1,9.805740356E0,9.115875363E-1
8.144548438E0,1.364407688E-1,9.851201057E0,9.163663387E-1
8.149510938E0,1.172967330E-1,9.839240074E0,9.642215967E-1
8.154473438E0,1.555848122E-1,9.812912941E0,1.009692311E0
8.159437500E0,1.292581707E-1,9.839240074E0,1.028836250E0
8.164400000E0,8.859504014E-2,9.872738838E0,1.050364971E0
8.169364063E0,1.244793311E-1,9.781807899E0,1.002509713E0
8.174326563E0,-9.509769268E-3,9.848807335E0,1.040797710E0
8.179290625E0,-5.975927413E-2,9.860768318E0,1.016865373E0
8.184253125E0,-1.267586201E-1,9.829663277E0,9.235489368E-1
8.189215625E0,-1.267586201E-1,9.815307617E0,8.876550794E-1
8.194179688E0,-1.147971824E-1,9.762663841E0,8.326171637E-1
8.199142188E0,-1.100087836E-1,9.762663841E0,7.680120468E-1
8.204106250E0,-7.411490381E-2,9.719596863E0,7.225509286E-1
8.209068750E0,-1.052203774E-1,9.719596863E0,7.608389854E-1
8.214032813E0,-7.650911063E-2,9.705241203E0,7.010126710E-1
8.218995313E0,-8.847054094E-2,9.719596863E0,7.249451280E-1
8.223957813E0,5.746084207E-5,9.724386215E0,6.459843516E-1
8.228921875E0,2.638410218E-2,9.707635880E0,6.268403530E-1
8.233884375E0,7.240065839E-3,9.664558411E0,5.765908360E-1
8.238846875E0,6.945100427E-2,9.676529884E0,7.105894685E-1
8.243810938E0,9.338344634E-2,9.631059647E0,7.081953287E-1
8.248773438E0,1.890844703E-1,9.645415306E0,7.464833260E-1
8.253737500E0,1.196909323E-1,9.731558800E0,7.225509286E-1
8.258700000E0,1.077295020E-1,9.731558800E0,7.177625299E-1
8.263664063E0,1.220851392E-1,9.729164124E0,8.230499029E-1
8.268626563E0,1.005468965E-1,9.731558800E0,8.374055624E-1
8.273590625E0,9.576806426E-2,9.741134644E0,8.852608800E-1
8.278553125E0,8.141243458E-2,9.748308182E0,9.331161380E-1
8.283515625E0,1.149025261E-1,9.803345680E0,9.474717975E-1
8.288478125E0,8.141243458E-2,9.786596298E0,9.977213144E-1
8.293442188E0,5.030696467E-2,9.827268600E0,9.714042544E-1
8.298406250E0,1.680729724E-2,9.820096016E0,9.977213144E-1
8.303368750E0,9.634267539E-3,9.867951393E0,1.009692311E0
8.308331250E0,1.202846877E-2,9.899056435E0,9.809715152E-1
8.313295313E0,-7.115567569E-3,9.903844833E0,1.047970772E0
8.318278125E0,4.791276529E-2,9.944517136E0,9.426929951E-1
8.323221875E0,6.705679744E-2,9.951700211E0,9.881540537E-1
8.328184375E0,2.398990095E-2,9.903844833E0,9.618370533E-1
8.333146875E0,3.595133126E-2,9.863162994E0,9.187605381E-1
8.338110938E0,4.313393682E-2,9.899056435E0,8.541554213E-1
8.343073438E0,-4.721365869E-3,9.989988327E0,8.565496206E-1
8.348037500E0,3.595133126E-2,9.987594604E0,8.517611623E-1
8.353000000E0,7.902780920E-2,9.987594604E0,8.637226820E-1
8.357964063E0,-1.190397050E-2,1.007373714E1,8.469727635E-1
8.362926563E0,-4.779784381E-2,9.970844269E0,9.570485950E-1
8.367889063E0,-3.822103515E-2,1.008809376E1,1.067114830E0
8.372853125E0,9.634267539E-3,1.010484314E1,1.227440238E0
8.377815625E0,8.620083332E-2,1.004501629E1,1.225046039E0
8.382778125E0,1.675462276E-1,9.978017807E0,1.244190097E0
8.387742188E0,1.555848122E-1,9.999555588E0,1.251363039E0
8.392704688E0,1.890844703E-1,9.989988327E0,1.119758487E0
8.397668750E0,2.201899439E-1,9.930162430E0,1.165219545E0
8.402631250E0,1.436233670E-1,9.865556717E0,1.160440803E0
8.407595313E0,1.436233670E-1,9.908634186E0,1.196325064E0
8.412557813E0,2.106227130E-1,9.913412094E0,1.174796462E0
8.417520313E0,1.675462276E-1,9.848807335E0,1.208296180E0
8.422484375E0,1.388349682E-1,9.903844833E0,1.057547569E0
8.427446875E0,1.364407688E-1,9.820096016E0,9.857599139E-1
8.432409375E0,1.436233670E-1,9.808135033E0,8.876550794E-1
8.437373438E0,2.877830528E-2,9.858384132E0,8.039059043E-1
8.442335938E0,-5.975927413E-2,9.903844833E0,8.445882201E-1
8.447300000E0,-1.746139228E-1,9.815307617E0,8.086943030E-1
8.452262500E0,-2.081135809E-1,9.848807335E0,8.996165395E-1
8.457226563E0,-1.889695525E-1,9.800951958E0,8.613380194E-1
8.462189063E0,-1.482968628E-1,9.817702293E0,8.254441619E-1
8.467153125E0,-1.482968628E-1,9.784202576E0,7.847618461E-1
8.472115625E0,-7.172070444E-2,9.820096016E0,7.297335267E-1
8.477078125E0,-1.171913818E-1,9.810519218E0,7.105894685E-1
8.482042188E0,-5.019204319E-2,9.743529320E0,7.991175056E-1
8.487004688E0,-1.004415527E-1,9.793779373E0,7.823676467E-1
8.491968750E0,-7.411490381E-2,9.812912941E0,8.206557035E-1
8.496932813E0,-1.339412183E-1,9.781807899E0,7.895502448E-1
8.501893750E0,-6.215347722E-2,9.733952522E0,7.632332444E-1
8.506857813E0,2.398990095E-2,9.707635880E0,7.345123291E-1
8.511820313E0,2.159569971E-2,9.700452805E0,8.278383017E-1
8.516784375E0,8.141243458E-2,9.729164124E0,8.828666210E-1
8.521746875E0,8.859504014E-2,9.757884979E0,9.211547375E-1
8.526710938E0,1.292581707E-1,9.729164124E0,1.040797710E0
8.531673438E0,1.077295020E-1,9.743529320E0,1.014471173E0
8.536635938E0,8.620083332E-2,9.817702293E0,9.785868526E-1
8.541600000E0,4.845864139E-3,9.808135033E0,9.450871348E-1
8.546562500E0,-1.052203774E-1,9.841633797E0,9.881540537E-1
8.551526563E0,-1.100087836E-1,9.896661758E0,1.012086511E0
8.556489063E0,-7.650911063E-2,9.930162430E0,1.009692311E0
8.561453125E0,-5.019204319E-2,9.899056435E0,9.761926532E-1
8.566415625E0,-9.804734588E-2,9.927767754E0,9.881540537E-1
8.571379688E0,-7.890331000E-2,9.918201447E0,1.004903913E0
8.576342188E0,-8.369170874E-2,9.872738838E0,9.139720798E-1
8.581304688E0,-3.583640978E-2,9.896661758E0,9.953366518E-1
8.586268750E0,3.834553435E-2,9.958883286E0,9.809715152E-1
8.591231250E0,9.098923951E-2,9.934949875E0,9.809715152E-1
8.596195313E0,2.398990095E-2,9.915806770E0,1.064720750E0
8.601157813E0,-3.104800731E-2,9.968450546E0,1.002509713E0
8.606121875E0,2.451662440E-3,9.963662148E0,1.007298112E0
8.611084375E0,5.270116776E-2,9.911018372E0,1.000115514E0
8.616048438E0,6.466259807E-2,9.934949875E0,9.737984538E-1
8.621010938E0,4.313393682E-2,9.997160912E0,9.929425120E-1
8.625975000E0,7.902780920E-2,1.000913239E1,1.124547005E0
8.630937500E0,7.902780920E-2,1.006655502E1,1.076691628E0
8.635900000E0,9.576806426E-2,9.980412483E0,1.105402946E0
8.640864063E0,1.101237014E-1,9.939739227E0,1.134114146E0
8.645826563E0,1.699404269E-1,9.882307053E0,1.162825465E0
8.650790625E0,1.364407688E-1,9.913412094E0,1.074297428E0
8.655751563E0,1.268735379E-1,9.867951393E0,1.083864689E0
8.660715625E0,1.914786696E-1,9.846412659E0,9.666158557E-1
8.665678125E0,1.723346412E-1,9.755491257E0,9.690100551E-1
8.670642188E0,1.388349682E-1,9.796163559E0,1.045586228E0
8.675606250E0,1.507963985E-1,9.755491257E0,9.402987957E-1
8.680568750E0,1.172967330E-1,9.772240639E0,9.929425120E-1
8.685532813E0,1.029410958E-1,9.741134644E0,9.187605381E-1
8.690495313E0,5.030696467E-2,9.767452240E0,9.546543956E-1
8.695459375E0,7.240065839E-3,9.788990021E0,8.948376179E-1
8.700420313E0,-7.411490381E-2,9.827268600E0,8.541554213E-1
8.705384375E0,-8.369170874E-2,9.815307617E0,8.254441619E-1
8.710348438E0,-1.219702139E-1,9.855990410E0,7.369065285E-1
8.715310938E0,-1.746139228E-1,9.867951393E0,8.086943030E-1
8.720273438E0,-1.650466919E-1,9.867951393E0,8.613380194E-1
8.725237500E0,-9.325893968E-2,9.827268600E0,8.828666210E-1
8.730200000E0,-1.267586201E-1,9.877518654E0,8.828666210E-1
8.735162500E0,-1.339412183E-1,9.879913330E0,8.517611623E-1
8.740128125E0,-5.258624628E-2,9.824884415E0,8.589437604E-1
8.745090625E0,-6.694187969E-2,9.760279655E0,8.134731650E-1
8.750053125E0,-1.429817267E-2,9.753096581E0,8.828666210E-1
8.755017188E0,-1.190397050E-2,9.755491257E0,8.086943030E-1
8.759978125E0,-2.336740959E-3,9.700452805E0,8.158673048E-1
8.764943750E0,-6.454767287E-2,9.678915024E0,8.421939611E-1
8.769906250E0,-1.315470189E-1,9.616703987E0,7.034068704E-1
8.774870313E0,-1.530852467E-1,9.676529884E0,7.369065285E-1
8.779832813E0,-1.315470189E-1,9.669347763E0,6.268403530E-1
8.784795313E0,-4.779784381E-2,9.681308746E0,5.646198392E-1
8.789759375E0,-2.147120051E-2,9.666953087E0,5.383027196E-1
8.794720313E0,-5.975927413E-2,9.741134644E0,6.124846935E-1
8.799684375E0,-1.482968628E-1,9.724386215E0,6.053020358E-1
8.804646875E0,-1.363354176E-1,9.798557281E0,7.081953287E-1
8.809612500E0,-1.985463500E-1,9.853595734E0,7.799734473E-1
8.814573438E0,-2.368248552E-1,9.922988892E0,9.426929951E-1
8.819537500E0,-1.195855886E-1,9.980412483E0,9.546543956E-1
8.824500000E0,-9.086474776E-2,9.896661758E0,9.929425120E-1
8.829464063E0,-1.937579513E-1,9.920595169E0,1.117364407E0
8.834426563E0,-2.942569554E-1,9.901451111E0,1.071903229E0
8.839389063E0,-2.679399252E-1,1.000195026E1,1.103008628E0
8.844353125E0,-1.578640938E-1,1.011919880E1,1.138902545E0
8.849315625E0,1.680729724E-2,1.010484314E1,1.162825465E0
8.854279688E0,1.441309415E-2,1.010484314E1,1.167613864E0
8.859242188E0,8.859504014E-2,9.989988327E0,1.174796462E0
8.864206250E0,9.576806426E-2,9.968450546E0,1.150864005E0
8.869168750E0,1.555848122E-1,1.001630592E1,1.155652523E0
8.874131250E0,1.866902709E-1,1.010484314E1,1.210690260E0
8.879095313E0,1.914786696E-1,1.001630592E1,1.210690260E0
8.884057813E0,1.388349682E-1,1.013115978E1,1.170008063E0
8.889021875E0,1.412291676E-1,1.007373714E1,1.184363604E0
8.893984375E0,2.130073458E-1,1.004980564E1,1.158046603E0
8.898948438E0,2.249783427E-1,1.006894875E1,1.203507662E0
8.903910938E0,2.082285136E-1,1.006176662E1,1.402111530E0
8.908873438E0,2.177957445E-1,1.009526634E1,1.344689012E0
8.913837500E0,1.747288406E-1,1.009766006E1,1.244190097E0
8.918801563E0,1.029410958E-1,1.001630592E1,1.225046039E0
8.923764063E0,3.355713189E-2,1.004023838E1,1.174796462E0
8.928728125E0,1.149025261E-1,9.891883850E0,1.131719947E0
8.933690625E0,1.484021842E-1,9.891883850E0,1.114970207E0
8.938654688E0,1.101237014E-1,9.901451111E0,1.141296744E0
8.943617188E0,1.986517012E-1,9.844018936E0,1.093441486E0
8.948579688E0,2.010459006E-1,9.784202576E0,1.110191226E0
8.953543750E0,1.579789966E-1,9.796163559E0,1.131719947E0
8.958506250E0,1.866902709E-1,9.748308182E0,1.134114146E0
8.963470313E0,1.555848122E-1,9.736346245E0,1.162825465E0
8.968431250E0,1.364407688E-1,9.769846916E0,1.193940520E0
8.973395313E0,3.355713189E-2,9.757884979E0,1.124547005E0
8.978357813E0,3.116292879E-2,9.736346245E0,1.079076290E0
8.983321875E0,4.845864139E-3,9.786596298E0,1.059941769E0
8.988284375E0,2.398990095E-2,9.781807899E0,9.498660564E-1
8.993248438E0,-2.865380608E-2,9.745914459E0,8.972222805E-1
8.998210938E0,-6.933607906E-2,9.765057564E0,9.283373356E-1
9.003175000E0,-1.429817267E-2,9.779414177E0,8.996165395E-1
9.008137500E0,-4.540364072E-2,9.810519218E0,7.751946449E-1
9.013101563E0,-2.625960298E-2,9.784202576E0,7.608389854E-1
9.018064063E0,-3.104800731E-2,9.769846916E0,7.656177878E-1
9.023056250E0,-4.300943762E-2,9.832057953E0,7.847618461E-1
9.027990625E0,-7.650911063E-2,9.788990021E0,8.039059043E-1
9.032954688E0,-8.847054094E-2,9.808135033E0,8.517611623E-1
9.037915625E0,-2.081135809E-1,9.841633797E0,8.900492787E-1
9.042879688E0,-1.794023216E-1,9.810519218E0,9.402987957E-1
9.047842188E0,-2.296518236E-1,9.851201057E0,8.924434781E-1
9.052806250E0,-2.105077952E-1,9.779414177E0,9.737984538E-1
9.057768750E0,-2.607572973E-1,9.829663277E0,9.115875363E-1
9.062731250E0,-2.344402373E-1,9.798557281E0,8.637226820E-1
9.067695313E0,-2.703245282E-1,9.844018936E0,8.541554213E-1
9.072659375E0,-3.253624141E-1,9.786596298E0,8.421939611E-1
9.077621875E0,-3.421122730E-1,9.805740356E0,8.230499029E-1
9.082585938E0,-2.655456960E-1,9.803345680E0,7.536563873E-1
9.087548438E0,-2.918627560E-1,9.779414177E0,7.632332444E-1
9.092510938E0,-1.937579513E-1,9.824884415E0,6.938396692E-1
9.097473438E0,-1.722197086E-1,9.808135033E0,7.345123291E-1
9.102437500E0,-1.459026486E-1,9.899056435E0,8.015117049E-1
9.107400000E0,-9.565314651E-2,9.841633797E0,9.187605381E-1
9.112364063E0,-8.129751682E-2,9.908634186E0,9.450871348E-1
9.117326563E0,-7.115567569E-3,9.832057953E0,9.905482531E-1
9.122290625E0,8.380663395E-2,9.851201057E0,1.009692311E0
9.127253125E0,9.338344634E-2,9.805740356E0,1.036009431E0
9.132217188E0,1.986517012E-1,9.810519218E0,1.088653088E0
9.137179688E0,3.206889629E-1,9.865556717E0,1.131719947E0
9.142142188E0,2.895835042E-1,9.745914459E0,1.215469122E0
9.147106250E0,3.924766779E-1,9.824884415E0,1.088653088E0
9.152068750E0,3.446213901E-1,9.736346245E0,1.165219545E0
9.157031250E0,4.690432847E-1,9.765057564E0,1.079076290E0
9.161995313E0,4.379377961E-1,9.757884979E0,1.095826149E0
9.166957813E0,3.805056810E-1,9.803345680E0,1.040797710E0
9.171921875E0,2.967565060E-1,9.805740356E0,1.026442170E0
9.176884375E0,3.111217320E-1,9.834450722E0,9.618370533E-1
9.181848438E0,3.254773617E-1,9.848807335E0,1.000115514E0
9.186810938E0,1.747288406E-1,9.844018936E0,9.594427943E-1
9.191775000E0,9.815269709E-2,9.875133514E0,1.057547569E0
9.196737500E0,-2.625960298E-2,9.963662148E0,1.016865373E0
9.201701563E0,-1.028357521E-1,9.978017807E0,1.069509029E0
9.206664063E0,-2.033347636E-1,1.006176662E1,1.141296744E0
9.211628125E0,-2.679399252E-1,1.005459404E1,1.083864689E0
9.216590625E0,-3.325450420E-1,1.000434399E1,9.809715152E-1
9.221553125E0,-2.559688985E-1,9.970844269E0,1.021653771E0
9.226517188E0,-1.722197086E-1,9.942132950E0,1.028836250E0
9.231479688E0,-1.794023216E-1,9.915806770E0,9.570485950E-1
9.236442188E0,-1.052203774E-1,9.922988892E0,8.613380194E-1
9.241406250E0,-1.339412183E-1,9.946911812E0,7.775887847E-1
9.246368750E0,-2.081135809E-1,9.867951393E0,8.039059043E-1
9.251332813E0,-1.985463500E-1,9.815307617E0,7.249451280E-1
9.256295313E0,-2.799013257E-1,9.781807899E0,7.680120468E-1
9.261259375E0,-2.775071263E-1,9.745914459E0,7.010126710E-1
9.266221875E0,-2.559688985E-1,9.726778984E0,6.770898700E-1
9.271184375E0,-1.865849346E-1,9.733952522E0,5.454853773E-1
9.276148438E0,-2.009405643E-1,9.702846527E0,5.191587210E-1
9.281110938E0,-1.554698795E-1,9.712413788E0,4.904474318E-1
9.286075000E0,-8.847054094E-2,9.721991539E0,5.000146627E-1
9.291037500E0,-4.300943762E-2,9.707635880E0,5.550525784E-1
9.296001563E0,2.159569971E-2,9.700452805E0,5.909464359E-1
9.300964063E0,1.680729724E-2,9.733952522E0,7.034068704E-1
9.305926563E0,8.141243458E-2,9.700452805E0,7.177625299E-1
9.310915625E0,1.220851392E-1,9.693280220E0,7.656177878E-1
9.315853125E0,1.029410958E-1,9.714808464E0,7.728003860E-1
9.320815625E0,1.149025261E-1,9.633453369E0,8.685110211E-1
9.325779688E0,8.141243458E-2,9.698058128E0,8.517611623E-1
9.330742188E0,1.484021842E-1,9.690885544E0,1.007298112E0
9.335706250E0,1.077295020E-1,9.707635880E0,1.036009431E0
9.340668750E0,9.338344634E-2,9.750701904E0,1.193940520E0
9.345632813E0,6.227797270E-2,9.784202576E0,1.165219545E0
9.350595313E0,1.651520431E-1,9.738740921E0,1.043192029E0
9.355557813E0,1.244793311E-1,9.705241203E0,1.052759290E0
9.360521875E0,8.380663395E-2,9.729164124E0,9.666158557E-1
9.365485938E0,-2.336740959E-3,9.791384697E0,9.283373356E-1
9.370448438E0,-2.386540174E-2,9.839240074E0,9.283373356E-1
9.375410938E0,-1.028357521E-1,9.832057953E0,9.115875363E-1
9.380375000E0,-6.694187969E-2,9.836845398E0,8.780878186E-1
9.385337500E0,-5.975927413E-2,9.791384697E0,9.259431362E-1
9.390301563E0,-9.509769268E-3,9.863162994E0,9.211547375E-1
9.395264063E0,-2.865380608E-2,9.798557281E0,8.876550794E-1
9.400226563E0,9.634267539E-3,9.810519218E0,9.115875363E-1
9.405190625E0,4.791276529E-2,9.841633797E0,8.996165395E-1
9.410153125E0,6.466259807E-2,9.896661758E0,9.211547375E-1
9.415117188E0,7.663360238E-2,9.762663841E0,9.785868526E-1
9.420079688E0,9.098923951E-2,9.815307617E0,9.044048786E-1
9.425042188E0,9.338344634E-2,9.894268990E0,9.091932774E-1
9.430006250E0,3.355713189E-2,9.937344551E0,8.852608800E-1
9.434968750E0,-1.190397050E-2,9.913412094E0,8.876550794E-1
9.439932813E0,-7.650911063E-2,9.860768318E0,9.044048786E-1
9.444895313E0,-1.004415527E-1,9.908634186E0,8.469727635E-1
9.449859375E0,-4.540364072E-2,9.980412483E0,8.302229643E-1
9.454821875E0,-4.061523825E-2,9.975632668E0,8.613380194E-1
9.459784375E0,-2.147120051E-2,9.989988327E0,8.948376179E-1
9.464748438E0,-1.669237576E-2,9.966055870E0,8.709052205E-1
9.469710938E0,-5.497087166E-2,9.911018372E0,9.498660564E-1
9.474675000E0,-2.386540174E-2,9.899056435E0,8.972222805E-1
9.479637500E0,-9.509769268E-3,9.949306488E0,8.469727635E-1
9.484601563E0,5.509537086E-2,9.901451111E0,8.709052205E-1
9.489564063E0,6.705679744E-2,9.942132950E0,8.039059043E-1
9.494526563E0,3.595133126E-2,9.908634186E0,8.230499029E-1
9.499490625E0,7.423940301E-2,9.942132950E0,8.517611623E-1
9.504453125E0,2.159569971E-2,9.937344551E0,9.283373356E-1
9.509415625E0,7.663360238E-2,9.903844833E0,9.450871348E-1
9.514379688E0,5.509537086E-2,9.920595169E0,9.714042544E-1
9.519342188E0,1.244793311E-1,9.853595734E0,9.881540537E-1
9.524306250E0,1.149025261E-1,9.896661758E0,8.924434781E-1
9.529268750E0,4.313393682E-2,9.834450722E0,8.996165395E-1
9.534231250E0,2.159569971E-2,9.855990410E0,8.804724813E-1
9.539195313E0,3.116292879E-2,9.851201057E0,8.206557035E-1
9.544159375E0,5.509537086E-2,9.934949875E0,8.206557035E-1
9.549121875E0,2.159569971E-2,9.860768318E0,8.397997618E-1
9.554085938E0,-2.865380608E-2,9.913412094E0,9.091932774E-1
9.559048438E0,-7.890331000E-2,9.954094887E0,9.977213144E-1
9.564010938E0,-9.565314651E-2,1.005698872E1,1.033615232E0
9.568975000E0,-2.625960298E-2,9.975632668E0,1.107797146E0
9.573937500E0,-2.336740959E-3,9.963662148E0,1.160440803E0
9.578901563E0,-9.325893968E-2,9.975632668E0,1.079076290E0
9.583864063E0,-1.770081222E-1,9.968450546E0,1.129325747E0
9.588826563E0,-2.105077952E-1,9.956489563E0,1.107797146E0
9.593790625E0,-2.416132689E-1,9.970844269E0,1.131719947E0
9.598753125E0,-2.033347636E-1,9.930162430E0,1.150864005E0
9.603717188E0,-2.535746992E-1,9.896661758E0,1.067114830E0
9.608679688E0,-1.961521655E-1,9.879913330E0,1.136508465E0
9.613642188E0,-1.004415527E-1,9.848807335E0,9.331161380E-1
9.618606250E0,-9.325893968E-2,9.834450722E0,8.421939611E-1
9.623570313E0,-4.540364072E-2,9.822490692E0,7.153682709E-1
9.628532813E0,-4.540364072E-2,9.810519218E0,6.603399515E-1
9.633496875E0,1.680729724E-2,9.779414177E0,6.053020358E-1
9.638459375E0,5.988377333E-2,9.757884979E0,6.100904346E-1
9.643421875E0,1.890844703E-1,9.772240639E0,7.943387032E-1
9.648385938E0,6.945100427E-2,9.757884979E0,5.718024373E-1
9.653348438E0,8.859504014E-2,9.750701904E0,8.254441619E-1
9.658312500E0,6.705679744E-2,9.841633797E0,7.847618461E-1
9.663275000E0,1.412291676E-1,9.810519218E0,8.278383017E-1
9.668239063E0,7.902780920E-2,9.858384132E0,8.613380194E-1
9.673201563E0,4.552813992E-2,9.970844269E0,9.666158557E-1
9.678164063E0,-9.086474776E-2,1.002826691E1,1.110191226E0
9.683128125E0,-9.325893968E-2,1.001870060E1,1.213074923E0
9.688090625E0,-5.975927413E-2,1.004980564E1,1.284862638E0
9.693054688E0,-2.865380608E-2,1.007373714E1,1.268112898E0
9.698017188E0,-1.171913818E-1,1.008569908E1,1.143691063E0
9.702981250E0,-1.554698795E-1,1.002826691E1,1.162825465E0
9.707943750E0,-1.124029830E-1,1.004501629E1,1.215469122E0
9.712906250E0,-1.124029830E-1,9.973237991E0,1.081470490E0
9.717868750E0,-1.147971824E-1,9.884700775E0,1.155652523E0
9.722831250E0,-1.076145768E-1,9.805740356E0,1.153258204E0
9.727795313E0,-1.219702139E-1,9.690885544E0,1.021653771E0
9.732759375E0,-4.540364072E-2,9.750701904E0,1.002509713E0
9.737721875E0,1.920149848E-2,9.681308746E0,9.618370533E-1
9.742685938E0,3.595133126E-2,9.640635490E0,9.666158557E-1
9.747648438E0,9.815269709E-2,9.592781067E0,7.991175056E-1
9.752612500E0,3.116292879E-2,9.597559929E0,7.943387032E-1
9.757575000E0,-6.454767287E-2,9.597559929E0,7.393007874E-1
9.762539063E0,-8.608591557E-2,9.561666489E0,6.316191554E-1
9.767500000E0,-1.147971824E-1,9.585598946E0,5.646198392E-1
9.772464063E0,-1.794023216E-1,9.532955170E0,6.316191554E-1
9.777428125E0,-1.913637519E-1,9.643030167E0,6.699072123E-1
9.782389063E0,-1.482968628E-1,9.602347374E0,7.081953287E-1
9.787353125E0,-8.369170874E-2,9.638241768E0,7.034068704E-1
9.792317188E0,-1.554698795E-1,9.626279831E0,7.967232466E-1
9.797279688E0,-1.171913818E-1,9.698058128E0,8.015117049E-1
9.802243750E0,-9.565314651E-2,9.616703987E0,8.039059043E-1
9.807206250E0,-6.454767287E-2,9.702846527E0,8.254441619E-1
9.812170313E0,-4.061523825E-2,9.726778984E0,9.211547375E-1
9.817132813E0,-8.129751682E-2,9.736346245E0,9.259431362E-1
9.822096875E0,-1.147971824E-1,9.767452240E0,9.570485950E-1
9.827059375E0,-2.152961940E-1,9.805740356E0,9.115875363E-1
9.832021875E0,-2.105077952E-1,9.855990410E0,9.594427943E-1
9.836984375E0,-2.775071263E-1,9.810519218E0,9.259431362E-1
9.841948438E0,-2.200750262E-1,9.891883850E0,9.402987957E-1
9.846910938E0,-2.655456960E-1,9.889489174E0,1.002509713E0
9.851875000E0,-1.985463500E-1,9.908634186E0,1.033615232E0
9.856837500E0,-1.387200505E-1,9.920595169E0,1.024047971E0
9.861800000E0,-2.081135809E-1,9.913412094E0,1.086258888E0
9.866764063E0,-1.794023216E-1,9.937344551E0,1.019259572E0
9.871726563E0,-1.674408913E-1,9.891883850E0,1.028836250E0
9.876689063E0,-1.195855886E-1,9.922988892E0,1.024047971E0
9.881653125E0,-4.779784381E-2,9.891883850E0,9.570485950E-1
9.886617188E0,7.240065839E-3,9.846412659E0,9.546543956E-1
9.891579688E0,7.240065839E-3,9.820096016E0,1.033615232E0
9.896543750E0,9.576806426E-2,9.824884415E0,1.036009431E0
9.901506250E0,1.244793311E-1,9.815307617E0,9.666158557E-1
9.906470313E0,6.227797270E-2,9.906239510E0,9.474717975E-1
9.911432813E0,4.791276529E-2,9.858384132E0,1.019259572E0
9.916396875E0,-4.721365869E-3,9.906239510E0,9.642215967E-1
9.921359375E0,4.313393682E-2,9.903844833E0,9.881540537E-1
9.926323438E0,6.945100427E-2,9.896661758E0,1.033615232E0
9.931284375E0,-1.190397050E-2,9.925383568E0,1.016865373E0
9.936248438E0,2.877830528E-2,9.987594604E0,1.040797710E0
9.941212500E0,-3.104800731E-2,9.884700775E0,1.079076290E0
9.946175000E0,-3.583640978E-2,9.970844269E0,1.091047287E0
9.951137500E0,-7.650911063E-2,1.002348804E1,1.193940520E0
9.956100000E0,-1.076145768E-1,9.987594604E0,1.150864005E0
9.961064063E0,-2.248634249E-1,9.937344551E0,1.112575889E0
9.966026563E0,-1.865849346E-1,9.980412483E0,1.119758487E0
9.970990625E0,-1.841907203E-1,9.920595169E0,1.079076290E0
9.975954688E0,-1.554698795E-1,9.939739227E0,1.138902545E0
9.980915625E0,-1.937579513E-1,1.007373714E1,1.098220348E0
9.985879688E0,-2.176903933E-1,9.925383568E0,1.105402946E0
9.990843750E0,-2.679399252E-1,9.908634186E0,1.040797710E0
9.995807813E0,-2.559688985E-1,9.985199928E0,1.095826149E0
1.000077031E1,-2.775071263E-1,9.949306488E0,1.131719947E0
1.000573281E1,-2.631514966E-1,9.915806770E0,1.136508465E0
1.001069688E1,-2.894685566E-1,9.968450546E0,1.045586228E0
1.001568906E1,-1.961521655E-1,9.989988327E0,9.737984538E-1
1.002062344E1,-1.937579513E-1,9.954094887E0,9.283373356E-1
1.002558594E1,-1.794023216E-1,9.934949875E0,9.905482531E-1
1.003054844E1,-1.865849346E-1,9.899056435E0,9.450871348E-1
1.003551250E1,-1.626524776E-1,9.987594604E0,9.331161380E-1
1.004047500E1,-1.578640938E-1,9.906239510E0,9.833656549E-1
1.004543906E1,-1.817965209E-1,9.851201057E0,1.009692311E0
1.005040156E1,-1.195855886E-1,9.891883850E0,9.618370533E-1
1.005536406E1,-1.243644133E-1,9.884700775E0,9.570485950E-1
1.006032812E1,-8.129751682E-2,9.877518654E0,9.331161380E-1
1.006529063E1,-5.258624628E-2,9.903844833E0,9.522601962E-1
1.007025469E1,7.240065839E-3,9.848807335E0,9.594427943E-1
1.007521719E1,4.791276529E-2,9.832057953E0,1.057547569E0
1.008017969E1,1.125083268E-1,9.834450722E0,1.071903229E0
1.008514219E1,1.555848122E-1,9.870346069E0,1.138902545E0
1.009010625E1,9.098923951E-2,9.891883850E0,1.100614548E0
1.009506875E1,2.638410218E-2,9.848807335E0,1.110191226E0
1.010003281E1,7.240065839E-3,9.853595734E0,1.150864005E0
1.010499531E1,-2.147120051E-2,9.846412659E0,1.083864689E0
1.010995938E1,-1.908657700E-2,9.858384132E0,1.112575889E0
1.011492188E1,-8.847054094E-2,9.899056435E0,1.119758487E0
1.011988438E1,-3.344221041E-2,9.853595734E0,1.107797146E0
1.012484844E1,4.313393682E-2,9.841633797E0,1.150864005E0
1.012981094E1,6.945100427E-2,9.800951958E0,1.117364407E0
1.013477500E1,8.620083332E-2,9.805740356E0,1.064720750E0
1.013973750E1,5.746084207E-5,9.786596298E0,1.071903229E0
1.014470000E1,-7.115567569E-3,9.851201057E0,1.105402946E0
1.014966406E1,-4.779784381E-2,9.793779373E0,1.093441486E0
1.015462812E1,2.877830528E-2,9.760279655E0,9.905482531E-1
1.015959219E1,3.595133126E-2,9.774634361E0,9.498660564E-1
1.016455313E1,5.988377333E-2,9.760279655E0,8.972222805E-1
1.016951719E1,-3.344221041E-2,9.765057564E0,9.187605381E-1
1.017447969E1,-2.625960298E-2,9.805740356E0,9.211547375E-1
1.017944219E1,-3.344221041E-2,9.791384697E0,9.379045963E-1
1.018440781E1,-8.608591557E-2,9.760279655E0,9.857599139E-1
