"Time (s)","Gyroscope x (rad/s)","Gyroscope y (rad/s)","Gyroscope z (rad/s)"
0.000000000E0,3.576877713E-1,3.237236738E-1,-3.816860616E-1
4.964063000E-3,-2.914699726E-3,-3.839724232E-3,-6.981316983E-5
9.926563000E-3,-2.914699726E-3,-3.839724232E-3,-6.981316983E-5
1.489062500E-2,-2.914699726E-3,-3.839724232E-3,-6.981316983E-5
1.985312500E-2,-5.672320258E-3,-7.557275705E-3,-1.396263397E-4
2.481718800E-2,-5.672320258E-3,-7.557275705E-3,-1.396263397E-4
2.977968800E-2,-6.824237294E-3,-1.233947743E-2,7.853981806E-4
3.474218800E-2,-6.824237294E-3,-1.233947743E-2,7.853981806E-4
3.970625000E-2,-2.690424919E-1,-3.328342736E-1,1.511280537E-1
4.466875000E-2,-2.690424919E-1,-3.328342736E-1,1.511280537E-1
4.963281300E-2,-1.953023374E-1,-1.137605608E-1,1.817934960E-1
5.459531300E-2,-1.953023374E-1,-1.137605608E-1,1.817934960E-1
5.955937500E-2,-1.763306111E-1,-4.974188283E-2,1.958608478E-1
6.452187500E-2,-1.763306111E-1,-4.974188283E-2,1.958608478E-1
6.948437500E-2,-1.551772207E-1,-2.469640970E-2,1.856157631E-1
7.444843800E-2,-1.551772207E-1,-2.469640970E-2,1.856157631E-1
7.941093800E-2,-1.223475784E-1,-1.907644793E-2,1.645147353E-1
8.437500000E-2,-1.223475784E-1,-1.907644793E-2,1.645147353E-1
8.933750000E-2,-8.365362883E-2,6.696828455E-2,1.598197967E-1
9.430156300E-2,-8.365362883E-2,6.696828455E-2,1.598197967E-1
9.926406300E-2,-4.052654654E-2,2.308023423E-1,1.537111402E-1
1.042265630E-1,-4.052654654E-2,2.308023423E-1,1.537111402E-1
1.091906250E-1,1.165879890E-2,4.895474017E-1,1.766273230E-1
1.141531250E-1,1.165879890E-2,4.895474017E-1,1.766273230E-1
1.191171880E-1,3.836233541E-2,7.318514585E-1,1.975538135E-1
1.240796880E-1,3.836233541E-2,7.318514585E-1,1.975538135E-1
1.290421880E-1,3.520328924E-2,8.847423196E-1,2.024407387E-1
1.340062500E-1,3.520328924E-2,8.847423196E-1,2.024407387E-1
1.389687500E-1,2.822197415E-2,9.177639484E-1,1.790009737E-1
1.439328130E-1,2.822197415E-2,9.177639484E-1,1.790009737E-1
1.488953130E-1,3.757693991E-2,7.902152538E-1,1.265363693E-1
1.538593750E-1,3.757693991E-2,7.902152538E-1,1.265363693E-1
1.588218750E-1,4.749041051E-2,6.498559117E-1,8.573057503E-2
1.637859380E-1,4.749041051E-2,6.498559117E-1,8.573057503E-2
1.687484380E-1,4.605923966E-2,5.507037640E-1,6.314601004E-2
1.737109380E-1,4.605923966E-2,5.507037640E-1,6.314601004E-2
1.786750000E-1,3.689625859E-2,4.613254368E-1,5.251695588E-2
1.836375000E-1,3.689625859E-2,4.613254368E-1,5.251695588E-2
1.886015630E-1,2.649409883E-2,4.265759289E-1,5.775294453E-2
1.935640630E-1,2.649409883E-2,4.265759289E-1,5.775294453E-2
1.985281250E-1,1.551597659E-2,4.010766745E-1,6.510078162E-2
2.034906250E-1,1.551597659E-2,4.010766745E-1,6.510078162E-2
2.084546880E-1,-7.819075137E-3,3.514045775E-1,6.653194875E-2
2.134171880E-1,-7.819075137E-3,3.514045775E-1,6.653194875E-2
2.183812500E-1,-3.558726236E-2,3.071779609E-1,6.134832278E-2
2.233437500E-1,-3.558726236E-2,3.071779609E-1,6.134832278E-2
2.283062500E-1,-6.569419056E-2,3.587000668E-1,9.541714936E-2
2.332703130E-1,-6.569419056E-2,3.587000668E-1,9.541714936E-2
2.382328130E-1,-9.707520902E-2,4.587772489E-1,1.583188176E-1
2.431953130E-1,-9.707520902E-2,4.587772489E-1,1.583188176E-1
2.481593750E-1,-1.275486648E-1,5.552590489E-1,2.194402516E-1
2.531218750E-1,-1.275486648E-1,5.552590489E-1,2.194402516E-1
2.580859380E-1,-1.484577060E-1,6.324375272E-1,2.613106966E-1
2.630484380E-1,-1.484577060E-1,6.324375272E-1,2.613106966E-1
2.680109380E-1,-1.568003744E-1,6.539574265E-1,2.754129469E-1
2.729750000E-1,-1.568003744E-1,6.539574265E-1,2.754129469E-1
2.779375000E-1,-1.598721594E-1,6.588792205E-1,2.728822231E-1
2.829015630E-1,-1.598721594E-1,6.588792205E-1,2.728822231E-1
2.878640630E-1,-1.511978656E-1,6.462256312E-1,2.564412355E-1
2.928281250E-1,-1.511978656E-1,6.462256312E-1,2.564412355E-1
2.977906250E-1,-1.423839629E-1,6.546729803E-1,2.366142869E-1
3.027531250E-1,-1.423839629E-1,6.546729803E-1,2.366142869E-1
3.077171880E-1,-1.265538186E-1,6.055245399E-1,2.058615834E-1
3.126796880E-1,-1.265538186E-1,6.055245399E-1,2.058615834E-1
3.176437500E-1,-1.156280637E-1,5.875999928E-1,1.900314540E-1
3.226062500E-1,-1.156280637E-1,5.875999928E-1,1.900314540E-1
3.275687500E-1,-1.069014147E-1,5.479112267E-1,1.740093231E-1
3.325328130E-1,-1.069014147E-1,5.479112267E-1,1.740093231E-1
3.374953130E-1,-1.032711342E-1,5.322905183E-1,1.630661041E-1
3.424593750E-1,-1.032711342E-1,5.322905183E-1,1.630661041E-1
3.474218750E-1,-1.059938446E-1,5.593430996E-1,1.617571115E-1
3.523859380E-1,-1.059938446E-1,5.593430996E-1,1.617571115E-1
3.573484380E-1,-1.084198505E-1,5.502673984E-1,1.562244147E-1
3.623109380E-1,-1.084198505E-1,5.502673984E-1,1.562244147E-1
3.672750000E-1,-1.087514684E-1,5.054822564E-1,1.456477195E-1
3.722375000E-1,-1.087514684E-1,5.054822564E-1,1.456477195E-1
3.772015630E-1,-1.139350906E-1,4.780282378E-1,1.359785944E-1
3.821640630E-1,-1.139350906E-1,4.780282378E-1,1.359785944E-1
3.871281250E-1,-1.266934574E-1,4.753753245E-1,1.417730898E-1
3.920906250E-1,-1.266934574E-1,4.753753245E-1,1.417730898E-1
3.970546880E-1,-1.429948211E-1,5.385736823E-1,1.755626649E-1
4.020171880E-1,-1.429948211E-1,5.385736823E-1,1.755626649E-1
4.069796880E-1,-1.577254087E-1,5.956285000E-1,2.188468277E-1
4.119437500E-1,-1.577254087E-1,5.956285000E-1,2.188468277E-1
4.169062500E-1,-1.670105606E-1,6.787760258E-1,2.735629082E-1
4.218703130E-1,-1.670105606E-1,6.787760258E-1,2.735629082E-1
4.268328130E-1,-1.811651736E-1,7.005926371E-1,2.968979478E-1
4.317953130E-1,-1.811651736E-1,7.005926371E-1,2.968979478E-1
4.367593750E-1,-1.887224466E-1,7.179935575E-1,3.188367486E-1
4.417218750E-1,-1.887224466E-1,7.179935575E-1,3.188367486E-1
4.466859380E-1,-1.839227974E-1,6.741334200E-1,3.210009634E-1
4.516484380E-1,-1.839227974E-1,6.741334200E-1,3.210009634E-1
4.566125000E-1,-1.735206395E-1,5.519952774E-1,3.048217595E-1
4.615750000E-1,-1.735206395E-1,5.519952774E-1,3.048217595E-1
4.665375000E-1,-1.675341576E-1,5.127777457E-1,3.123441339E-1
4.715015630E-1,-1.675341576E-1,5.127777457E-1,3.123441339E-1
4.764640630E-1,-1.673421711E-1,4.960574806E-1,3.192207217E-1
4.814265630E-1,-1.673421711E-1,4.960574806E-1,3.192207217E-1
4.863906250E-1,-1.678832173E-1,4.629136622E-1,3.227812052E-1
4.913531250E-1,-1.678832173E-1,4.629136622E-1,3.227812052E-1
4.963171880E-1,-1.654048562E-1,5.063374639E-1,3.357838988E-1
5.012796880E-1,-1.654048562E-1,5.063374639E-1,3.357838988E-1
5.062437500E-1,-1.541125774E-1,5.344547033E-1,3.392570913E-1
5.112062500E-1,-1.541125774E-1,5.344547033E-1,3.392570913E-1
5.161687500E-1,-1.371479779E-1,5.327966809E-1,3.300941288E-1
5.211328130E-1,-1.371479779E-1,5.327966809E-1,3.300941288E-1
5.260968750E-1,-1.200961024E-1,4.973664880E-1,3.006678820E-1
5.310593750E-1,-1.200961024E-1,4.973664880E-1,3.006678820E-1
5.360218750E-1,-1.069014147E-1,4.058239460E-1,2.566681206E-1
5.409843750E-1,-1.069014147E-1,4.058239460E-1,2.566681206E-1
5.459484380E-1,-9.566149861E-2,3.086091280E-1,2.136632055E-1
5.509125000E-1,-9.566149861E-2,3.086091280E-1,2.136632055E-1
5.558750000E-1,-8.417722583E-2,2.683269083E-1,1.866106093E-1
5.608390630E-1,-8.417722583E-2,2.683269083E-1,1.866106093E-1
5.658000000E-1,-6.808529049E-2,2.482207268E-1,1.656492054E-1
5.707640630E-1,-6.808529049E-2,2.482207268E-1,1.656492054E-1
5.757265630E-1,-5.229006335E-2,1.830850393E-1,1.262571216E-1
5.806906250E-1,-5.229006335E-2,1.830850393E-1,1.262571216E-1
5.856546880E-1,-4.281292483E-2,9.951867163E-2,8.000589162E-2
5.906171880E-1,-4.281292483E-2,9.951867163E-2,8.000589162E-2
5.955796880E-1,-2.895501256E-2,5.646140128E-2,4.475024343E-2
6.005437500E-1,-2.895501256E-2,5.646140128E-2,4.475024343E-2
6.055078130E-1,-1.787217148E-2,4.042182490E-2,2.405063622E-2
6.104703130E-1,-1.787217148E-2,4.042182490E-2,2.405063622E-2
6.154328130E-1,-3.473205259E-3,5.202826485E-2,1.914626174E-2
6.203968750E-1,-3.473205259E-3,5.202826485E-2,1.914626174E-2
6.253593750E-1,8.255407214E-3,1.514422148E-1,4.291764647E-2
6.303234380E-1,8.255407214E-3,1.514422148E-1,4.291764647E-2
6.352859380E-1,1.705186628E-2,2.405412793E-1,6.002187356E-2
6.402484380E-1,1.705186628E-2,2.405412793E-1,6.002187356E-2
6.452125000E-1,2.452187613E-2,3.317172825E-1,7.602654397E-2
6.501750000E-1,2.452187613E-2,3.317172825E-1,7.602654397E-2
6.551390630E-1,3.536036983E-2,3.675837815E-1,7.953465730E-2
6.601015630E-1,3.536036983E-2,3.675837815E-1,7.953465730E-2
6.650640630E-1,4.607669264E-2,3.726976216E-1,7.559020817E-2
6.700281250E-1,4.607669264E-2,3.726976216E-1,7.559020817E-2
6.749906250E-1,5.532693863E-2,3.675139844E-1,6.997025013E-2
6.799546880E-1,5.532693863E-2,3.675139844E-1,6.997025013E-2
6.849171880E-1,6.466444582E-2,3.245265186E-1,5.850343779E-2
6.898812500E-1,6.466444582E-2,3.245265186E-1,5.850343779E-2
6.948437500E-1,7.309439033E-2,3.066020012E-1,5.237733200E-2
6.998078130E-1,7.309439033E-2,3.066020012E-1,5.237733200E-2
7.047703130E-1,8.208283782E-2,2.410648763E-1,3.556980938E-2
7.097328130E-1,8.208283782E-2,2.410648763E-1,3.556980938E-2
7.146953130E-1,8.681267500E-2,1.821251065E-1,1.424188633E-2
7.196593750E-1,8.681267500E-2,1.821251065E-1,1.424188633E-2
7.246234380E-1,8.948303014E-2,1.176526472E-1,-1.487020496E-2
7.295859380E-1,8.948303014E-2,1.176526472E-1,-1.487020496E-2
7.345500000E-1,9.248499572E-2,4.197516665E-2,-4.742059484E-2
7.395125000E-1,9.248499572E-2,4.197516665E-2,-4.742059484E-2
7.444750000E-1,9.712757170E-2,-8.709193207E-3,-6.991788745E-2
7.494390630E-1,9.712757170E-2,-8.709193207E-3,-6.991788745E-2
7.544015630E-1,9.660397470E-2,-2.727949619E-2,-7.735299319E-2
7.593656250E-1,9.660397470E-2,-2.727949619E-2,-7.735299319E-2
7.643281250E-1,8.967501670E-2,-3.546509147E-2,-7.356562465E-2
7.692906250E-1,8.967501670E-2,-3.546509147E-2,-7.356562465E-2
7.742546880E-1,7.979645580E-2,1.043706853E-2,-5.797983706E-2
7.792171880E-1,7.979645580E-2,1.043706853E-2,-5.797983706E-2
7.841812500E-1,7.089527696E-2,4.948008433E-2,-4.787437990E-2
7.891437500E-1,7.089527696E-2,4.948008433E-2,-4.787437990E-2
7.941078130E-1,6.349507719E-2,7.150614262E-2,-4.359832406E-2
7.990703130E-1,6.349507719E-2,7.150614262E-2,-4.359832406E-2
8.040328130E-1,5.911429971E-2,1.034282148E-1,-4.064871743E-2
8.089968750E-1,5.911429971E-2,1.034282148E-1,-4.064871743E-2
8.139593750E-1,6.012659147E-2,9.594074637E-2,-4.092797264E-2
8.189218750E-1,6.012659147E-2,9.594074637E-2,-4.092797264E-2
8.238859380E-1,6.251769513E-2,6.236061454E-2,-4.354596511E-2
8.288500000E-1,6.251769513E-2,6.236061454E-2,-4.354596511E-2
8.338125000E-1,6.455972791E-2,3.373721614E-2,-4.501204193E-2
8.387750000E-1,6.455972791E-2,3.373721614E-2,-4.501204193E-2
8.437390630E-1,6.853908300E-2,1.485275198E-2,-4.607669264E-2
8.487015630E-1,6.853908300E-2,1.485275198E-2,-4.607669264E-2
8.536640630E-1,7.810348272E-2,5.969026126E-3,-4.949753731E-2
8.586265630E-1,7.810348272E-2,5.969026126E-3,-4.949753731E-2
8.635906250E-1,9.114108980E-2,-1.588249579E-2,-5.770058557E-2
8.685531250E-1,9.114108980E-2,-1.588249579E-2,-5.770058557E-2
8.735171880E-1,9.513789415E-2,-6.672393531E-2,-7.152359188E-2
8.784796880E-1,9.513789415E-2,-6.672393531E-2,-7.152359188E-2
8.834421880E-1,9.592329711E-2,-1.466251165E-1,-9.189158678E-2
8.884062500E-1,9.592329711E-2,-1.466251165E-1,-9.189158678E-2
8.933687500E-1,1.078089848E-1,-2.270673364E-1,-1.144936010E-1
8.983328130E-1,1.078089848E-1,-2.270673364E-1,-1.144936010E-1
9.032953130E-1,1.315629184E-1,-3.311064243E-1,-1.383697093E-1
9.082593750E-1,1.315629184E-1,-3.311064243E-1,-1.383697093E-1
9.132218750E-1,1.555437446E-1,-3.964515328E-1,-1.441118419E-1
9.181843750E-1,1.555437446E-1,-3.964515328E-1,-1.441118419E-1
9.231484380E-1,1.470265388E-1,-4.297698736E-1,-1.394343525E-1
9.281109380E-1,1.470265388E-1,-4.297698736E-1,-1.394343525E-1
9.330750000E-1,1.204975322E-1,-4.947484732E-1,-1.331337094E-1
9.380375000E-1,1.204975322E-1,-4.947484732E-1,-1.331337094E-1
9.430015630E-1,1.017876044E-1,-5.357811451E-1,-1.220508739E-1
9.479640630E-1,1.017876044E-1,-5.357811451E-1,-1.220508739E-1
9.529281250E-1,9.236282110E-2,-5.698150992E-1,-1.198517606E-1
9.578921880E-1,9.236282110E-2,-5.698150992E-1,-1.198517606E-1
9.628531250E-1,8.171631396E-2,-4.957607687E-1,-9.173450619E-2
9.678171880E-1,8.171631396E-2,-4.957607687E-1,-9.173450619E-2
9.727796880E-1,6.620033830E-2,-4.343775511E-1,-4.740314186E-2
9.777437500E-1,6.620033830E-2,-4.343775511E-1,-4.740314186E-2
9.827062500E-1,4.754276946E-2,-3.336371481E-1,1.197295822E-2
9.876687500E-1,4.754276946E-2,-3.336371481E-1,1.197295822E-2
9.926328130E-1,2.988003753E-2,-2.659009099E-1,5.555383116E-2
9.975968750E-1,2.988003753E-2,-2.659009099E-1,5.555383116E-2
1.002559375E0,1.785471849E-2,-2.232625186E-1,7.599163800E-2
1.007521875E0,1.785471849E-2,-2.232625186E-1,7.599163800E-2
1.012484375E0,1.382300723E-2,-2.534567118E-1,6.766641140E-2
1.017448438E0,1.382300723E-2,-2.534567118E-1,6.766641140E-2
1.022410938E0,1.281071641E-2,-2.176250964E-1,6.262241304E-2
1.027375000E0,1.281071641E-2,-2.176250964E-1,6.262241304E-2
1.032337500E0,1.298524998E-2,-2.017077059E-1,5.496041849E-2
1.037301563E0,1.298524998E-2,-2.017077059E-1,5.496041849E-2
1.042265625E0,1.103048120E-2,-1.899790913E-1,5.071926862E-2
1.047226563E0,1.103048120E-2,-1.899790913E-1,5.071926862E-2
1.052190625E0,1.129228063E-2,-1.796467453E-1,4.979424179E-2
1.057153125E0,1.129228063E-2,-1.796467453E-1,4.979424179E-2
1.062118750E0,1.673770696E-2,-1.572018117E-1,5.190609023E-2
1.067081250E0,1.673770696E-2,-1.572018117E-1,5.190609023E-2
1.072043750E0,2.708750963E-2,-1.387536824E-1,5.064945295E-2
1.077007813E0,2.708750963E-2,-1.387536824E-1,5.064945295E-2
1.081998438E0,3.794345632E-2,-1.060985625E-1,4.874704406E-2
1.086932813E0,3.794345632E-2,-1.060985625E-1,4.874704406E-2
1.091895313E0,4.968952388E-2,-9.213592857E-2,4.328416660E-2
1.096859375E0,4.968952388E-2,-9.213592857E-2,4.328416660E-2
1.101821875E0,6.339035928E-2,-1.087514684E-1,3.440044075E-2
1.106785938E0,6.339035928E-2,-1.087514684E-1,3.440044075E-2
1.111748438E0,7.290240377E-2,-1.287703961E-1,2.513274178E-2
1.116710938E0,7.290240377E-2,-1.287703961E-1,2.513274178E-2
1.121675000E0,6.696828455E-2,-1.996307522E-1,4.188789986E-3
1.126637500E0,6.696828455E-2,-1.996307522E-1,4.188789986E-3
1.131601563E0,6.010913849E-2,-2.751162350E-1,-2.520255372E-2
1.136564063E0,6.010913849E-2,-2.751162350E-1,-2.520255372E-2
1.141528125E0,6.082472578E-2,-3.557504714E-1,-6.237806752E-2
1.146490625E0,6.082472578E-2,-3.557504714E-1,-6.237806752E-2
1.151453125E0,6.557202339E-2,-3.616845906E-1,-8.815658092E-2
1.156417188E0,6.557202339E-2,-3.616845906E-1,-8.815658092E-2
1.161379688E0,7.037167251E-2,-3.581241071E-1,-1.011243761E-1
1.166343750E0,7.037167251E-2,-3.581241071E-1,-1.011243761E-1
1.171306250E0,7.347836345E-2,-3.545810878E-1,-9.791296721E-2
1.176270313E0,7.347836345E-2,-3.545810878E-1,-9.791296721E-2
1.181232813E0,7.414158434E-2,-3.105289936E-1,-7.806857675E-2
1.186195313E0,7.414158434E-2,-3.105289936E-1,-7.806857675E-2
1.191159375E0,7.367035002E-2,-2.653947771E-1,-5.749114603E-2
1.196121875E0,7.367035002E-2,-2.653947771E-1,-5.749114603E-2
1.201085938E0,7.501424849E-2,-2.542071939E-1,-4.979424179E-2
1.206048438E0,7.501424849E-2,-2.542071939E-1,-4.979424179E-2
1.211012500E0,7.283259183E-2,-2.082352340E-1,-3.075270168E-2
1.215975000E0,7.283259183E-2,-2.082352340E-1,-3.075270168E-2
1.220937500E0,6.248278543E-2,-1.230631620E-1,1.226966456E-2
1.225901563E0,6.248278543E-2,-1.230631620E-1,1.226966456E-2
1.230864063E0,4.482005537E-2,-4.073598608E-2,5.595525727E-2
1.235828125E0,4.482005537E-2,-4.073598608E-2,5.595525727E-2
1.240792188E0,3.583160788E-2,-3.804817796E-3,8.813912421E-2
1.245754688E0,3.583160788E-2,-3.804817796E-3,8.813912421E-2
1.250718750E0,3.255039081E-2,5.256931856E-2,1.069712266E-1
1.255681250E0,3.255039081E-2,5.256931856E-2,1.069712266E-1
1.260643750E0,3.008947708E-2,3.181735054E-2,9.491100162E-2
1.265606250E0,3.008947708E-2,3.181735054E-2,9.491100162E-2
1.270570313E0,2.652900480E-2,-1.879719645E-2,7.401940972E-2
1.275532813E0,2.652900480E-2,-1.879719645E-2,7.401940972E-2
1.280496875E0,2.296853252E-2,-9.920451790E-2,5.105087906E-2
1.285459375E0,2.296853252E-2,-9.920451790E-2,5.105087906E-2
1.290421875E0,1.879719645E-2,-1.393645406E-1,3.679154068E-2
1.295385938E0,1.879719645E-2,-1.393645406E-1,3.679154068E-2
1.300348438E0,1.701696031E-2,-1.750914305E-1,2.508038096E-2
1.305312500E0,1.701696031E-2,-1.750914305E-1,2.508038096E-2
1.310275000E0,1.687733456E-2,-1.814618856E-1,1.624901593E-2
1.315239063E0,1.687733456E-2,-1.814618856E-1,1.624901593E-2
1.320201563E0,1.534144394E-2,-1.746900082E-1,1.197295822E-2
1.325164063E0,1.534144394E-2,-1.746900082E-1,1.197295822E-2
1.330128125E0,1.509709843E-2,-1.151742786E-1,1.937315427E-2
1.335090625E0,1.509709843E-2,-1.151742786E-1,1.937315427E-2
1.340054688E0,1.572541706E-2,-1.227664575E-1,1.954768784E-2
1.345018750E0,1.572541706E-2,-1.227664575E-1,1.954768784E-2
1.349981250E0,1.710422710E-2,-1.538507789E-1,1.425934024E-2
1.354943750E0,1.710422710E-2,-1.538507789E-1,1.425934024E-2
1.359906250E0,1.830850355E-2,-2.008524835E-1,4.118977115E-3
1.364870313E0,1.830850355E-2,-2.008524835E-1,4.118977115E-3
1.369832813E0,1.733111963E-2,-1.969604045E-1,2.879793290E-3
1.374795313E0,1.733111963E-2,-1.969604045E-1,2.879793290E-3
1.379759375E0,1.527163107E-2,-1.967684180E-1,-1.535889693E-3
1.384721875E0,1.527163107E-2,-1.967684180E-1,-1.535889693E-3
1.389685938E0,1.223475765E-2,-1.896998286E-1,-6.492624991E-3
1.394648438E0,1.223475765E-2,-1.896998286E-1,-6.492624991E-3
1.399612500E0,1.331686229E-2,-1.875705272E-1,-9.983283468E-3
1.404575000E0,1.331686229E-2,-1.875705272E-1,-9.983283468E-3
1.409539063E0,1.610938832E-2,-2.154085338E-1,-1.598721556E-2
1.414501563E0,1.610938832E-2,-2.154085338E-1,-1.598721556E-2
1.419464063E0,1.879719645E-2,-2.231403440E-1,-2.366666496E-2
1.424428125E0,1.879719645E-2,-2.231403440E-1,-2.366666496E-2
1.429390625E0,2.193878777E-2,-2.581341863E-1,-4.036946595E-2
1.434354688E0,2.193878777E-2,-2.581341863E-1,-4.036946595E-2
1.439317188E0,2.935643867E-2,-2.763205171E-1,-5.532693863E-2
1.444281250E0,2.935643867E-2,-2.763205171E-1,-5.532693863E-2
1.449243750E0,4.152138159E-2,-2.781182230E-1,-6.291911751E-2
1.454206250E0,4.152138159E-2,-2.781182230E-1,-6.291911751E-2
1.459170313E0,5.407030135E-2,-2.589021325E-1,-6.269222498E-2
1.464134375E0,5.407030135E-2,-2.589021325E-1,-6.269222498E-2
1.469096875E0,6.375687569E-2,-2.150769234E-1,-5.592034757E-2
1.474059375E0,6.375687569E-2,-2.150769234E-1,-5.592034757E-2
1.479023438E0,6.942919642E-2,-1.698728949E-1,-4.754276946E-2
1.483985938E0,6.942919642E-2,-1.698728949E-1,-4.754276946E-2
1.488948438E0,7.147122920E-2,-1.047721133E-1,-3.644247353E-2
1.493912500E0,7.147122920E-2,-1.047721133E-1,-3.644247353E-2
1.498875000E0,6.825982779E-2,-5.398303270E-2,-2.944370359E-2
1.503839063E0,6.825982779E-2,-5.398303270E-2,-2.944370359E-2
1.508801563E0,6.372196972E-2,-5.220279843E-2,-3.089232743E-2
1.513764063E0,6.372196972E-2,-5.220279843E-2,-3.089232743E-2
1.518728125E0,5.953317881E-2,-7.394959778E-2,-3.714060783E-2
1.523690625E0,5.953317881E-2,-7.394959778E-2,-3.714060783E-2
1.528654688E0,6.167993695E-2,-1.178969890E-1,-4.579744115E-2
1.533617188E0,6.167993695E-2,-1.178969890E-1,-4.579744115E-2
1.538581250E0,6.894050539E-2,-7.269296050E-2,-3.981095925E-2
1.543543750E0,6.894050539E-2,-7.269296050E-2,-3.981095925E-2
1.548507813E0,7.771950960E-2,-4.387757555E-2,-3.244566917E-2
1.553470313E0,7.771950960E-2,-4.387757555E-2,-3.244566917E-2
1.558432813E0,9.145525098E-2,-4.094542563E-2,-2.673844434E-2
1.563396875E0,9.145525098E-2,-4.094542563E-2,-2.673844434E-2
1.568359375E0,1.072853878E-1,-1.647590846E-2,-1.933824830E-2
1.573323438E0,1.072853878E-1,-1.647590846E-2,-1.933824830E-2
1.578285938E0,1.212829277E-1,1.021017600E-2,-1.370083448E-2
1.583250000E0,1.212829277E-1,1.021017600E-2,-1.370083448E-2
1.588212500E0,1.346347034E-1,2.237512171E-2,-1.057669520E-2
1.593175000E0,1.346347034E-1,2.237512171E-2,-1.057669520E-2
1.598139063E0,1.392947286E-1,6.124360487E-2,-4.782202188E-3
1.603101563E0,1.392947286E-1,6.124360487E-2,-4.782202188E-3
1.608065625E0,1.348266900E-1,6.206390634E-2,-3.490658477E-3
1.613028125E0,1.348266900E-1,6.206390634E-2,-3.490658477E-3
1.617990625E0,1.208989546E-1,6.585127115E-2,-1.884955564E-3
1.622954688E0,1.208989546E-1,6.585127115E-2,-1.884955564E-3
1.627917188E0,1.070934013E-1,6.461209059E-2,-2.530727303E-3
1.632881250E0,1.070934013E-1,6.461209059E-2,-2.530727303E-3
1.637843750E0,9.609782696E-2,4.509930685E-2,-8.150687441E-3
1.642807813E0,9.609782696E-2,4.509930685E-2,-8.150687441E-3
1.647770313E0,9.232791513E-2,1.768018492E-2,-1.670280099E-2
1.652734375E0,9.232791513E-2,1.768018492E-2,-1.670280099E-2
1.657696875E0,8.532914519E-2,-2.811725438E-2,-2.834414691E-2
1.662659375E0,8.532914519E-2,-2.811725438E-2,-2.834414691E-2
1.667623438E0,6.698573381E-2,-1.021366641E-1,-4.351105914E-2
1.672585938E0,6.698573381E-2,-1.021366641E-1,-4.351105914E-2
1.677548438E0,4.183554277E-2,-1.326624751E-1,-5.073672161E-2
1.682512500E0,4.183554277E-2,-1.326624751E-1,-5.073672161E-2
1.687475000E0,1.933824830E-2,-1.730144918E-1,-5.541420355E-2
1.692439063E0,1.933824830E-2,-1.730144918E-1,-5.541420355E-2
1.697401563E0,6.702064537E-3,-2.144311517E-1,-5.658357590E-2
1.702365625E0,6.702064537E-3,-2.144311517E-1,-5.658357590E-2
1.707328125E0,5.026548170E-3,-2.814866900E-1,-5.914920941E-2
1.712290625E0,5.026548170E-3,-2.814866900E-1,-5.914920941E-2
1.717254688E0,4.363323096E-4,-3.206344247E-1,-5.955063552E-2
1.722218750E0,4.363323096E-4,-3.206344247E-1,-5.955063552E-2
1.727181250E0,-7.644542027E-3,-2.666164935E-1,-4.878195375E-2
1.732143750E0,-7.644542027E-3,-2.666164935E-1,-4.878195375E-2
1.737107813E0,-1.750565320E-2,-2.184803188E-1,-4.035201296E-2
1.742070313E0,-1.750565320E-2,-2.184803188E-1,-4.035201296E-2
1.747034375E0,-2.944370359E-2,-1.493129134E-1,-2.766346931E-2
1.751996875E0,-2.944370359E-2,-1.493129134E-1,-2.766346931E-2
1.756959375E0,-4.174827412E-2,-1.091877967E-1,-1.658062823E-2
1.761923438E0,-4.174827412E-2,-1.091877967E-1,-1.658062823E-2
1.766885938E0,-5.291838199E-2,-8.510225266E-2,-6.230825558E-3
1.771850000E0,-5.291838199E-2,-8.510225266E-2,-6.230825558E-3
1.776812500E0,-6.365215778E-2,-1.051037237E-1,-2.792526793E-4
1.781776563E0,-6.365215778E-2,-1.051037237E-1,-2.792526793E-4
1.786739063E0,-7.524114102E-2,-1.161167547E-1,7.312929723E-3
1.791701563E0,-7.524114102E-2,-1.161167547E-1,7.312929723E-3
1.796665625E0,-8.873254061E-2,-1.689129621E-1,7.853982039E-3
1.801628125E0,-8.873254061E-2,-1.689129621E-1,7.853982039E-3
1.806590625E0,-9.998991340E-2,-2.717826664E-1,-2.670353744E-3
1.811554688E0,-9.998991340E-2,-2.717826664E-1,-2.670353744E-3
1.816518750E0,-1.044579521E-1,-3.392920196E-1,-1.261873078E-2
1.821481250E0,-1.044579521E-1,-3.392920196E-1,-1.261873078E-2
1.826443750E0,-1.013512686E-1,-3.740414977E-1,-2.218313515E-2
1.831407813E0,-1.013512686E-1,-3.740414977E-1,-2.218313515E-2
1.836370313E0,-9.662142396E-2,-3.656639159E-1,-2.607521974E-2
1.841334375E0,-9.662142396E-2,-3.656639159E-1,-2.607521974E-2
1.846296875E0,-9.306095541E-2,-3.413689435E-1,-2.560397983E-2
1.851259375E0,-9.306095541E-2,-3.413689435E-1,-2.560397983E-2
1.856223438E0,-9.058258682E-2,-4.115311801E-1,-4.188790172E-2
1.861185938E0,-9.058258682E-2,-4.115311801E-1,-4.188790172E-2
1.866148438E0,-8.648106456E-2,-4.412716031E-1,-5.948081985E-2
1.871112500E0,-8.648106456E-2,-4.412716031E-1,-5.948081985E-2
1.876075000E0,-8.367108554E-2,-3.817209601E-1,-7.010987401E-2
1.881037500E0,-8.367108554E-2,-3.817209601E-1,-7.010987401E-2
1.886001563E0,-7.979645580E-2,-3.670078218E-1,-8.665559441E-2
1.890964063E0,-7.979645580E-2,-3.670078218E-1,-8.665559441E-2
1.895928125E0,-7.433357090E-2,-3.283313513E-1,-9.138543904E-2
1.900890625E0,-7.433357090E-2,-3.283313513E-1,-9.138543904E-2
1.905854688E0,-6.927211583E-2,-2.704387605E-1,-8.689994365E-2
1.910817188E0,-6.927211583E-2,-2.704387605E-1,-8.689994365E-2
1.915781250E0,-6.517059356E-2,-2.353751063E-1,-8.084364980E-2
1.920743750E0,-6.517059356E-2,-2.353751063E-1,-8.084364980E-2
1.925706250E0,-6.473426521E-2,-1.829628646E-1,-6.986553222E-2
1.930670313E0,-6.473426521E-2,-1.829628646E-1,-6.986553222E-2
1.935632813E0,-6.738716364E-2,-1.552644968E-1,-6.058037654E-2
1.940596875E0,-6.738716364E-2,-1.552644968E-1,-6.058037654E-2
1.945559375E0,-6.766641140E-2,-1.464854777E-1,-5.501277745E-2
1.950523438E0,-6.766641140E-2,-1.464854777E-1,-5.501277745E-2
1.955485938E0,-5.773549154E-2,-1.244419739E-1,-4.904375225E-2
1.960450000E0,-5.773549154E-2,-1.244419739E-1,-4.904375225E-2
1.965412500E0,-3.640756756E-2,-6.932447851E-2,-3.921754658E-2
1.970375000E0,-3.640756756E-2,-6.932447851E-2,-3.921754658E-2
1.975339063E0,-8.325220086E-3,-1.947787404E-2,-3.040363453E-2
1.980301563E0,-8.325220086E-3,-1.947787404E-2,-3.040363453E-2
1.985265625E0,2.036799304E-2,6.213372201E-2,-1.748819835E-2
1.990229688E0,2.036799304E-2,6.213372201E-2,-1.748819835E-2
1.995192188E0,4.787437990E-2,1.127657220E-1,-9.372417815E-3
2.000154688E0,4.787437990E-2,1.127657220E-1,-9.372417815E-3
2.005117188E0,6.918485463E-2,1.771858186E-1,1.396263397E-4
2.010081250E0,6.918485463E-2,1.771858186E-1,1.396263397E-4
2.015045313E0,7.897614688E-2,2.563539743E-1,1.097812131E-2
2.020006250E0,7.897614688E-2,2.563539743E-1,1.097812131E-2
2.024970313E0,8.100073040E-2,3.459067941E-1,2.204350755E-2
2.029934375E0,8.100073040E-2,3.459067941E-1,2.204350755E-2
2.034896875E0,8.061675727E-2,3.756821156E-1,2.368411794E-2
2.039860938E0,8.061675727E-2,3.756821156E-1,2.368411794E-2
2.044823438E0,8.033750206E-2,3.506017327E-1,1.675515994E-2
2.049785938E0,8.033750206E-2,3.506017327E-1,1.675515994E-2
2.054750000E0,8.410741389E-2,2.770710289E-1,3.106686054E-3
2.059712500E0,8.410741389E-2,2.770710289E-1,3.106686054E-3
2.064675000E0,9.028588235E-2,2.530378401E-1,-3.385938704E-3
2.069639063E0,9.028588235E-2,2.530378401E-1,-3.385938704E-3
2.074631250E0,9.868091345E-2,2.432989031E-1,-5.323254038E-3
2.079565625E0,9.868091345E-2,2.432989031E-1,-5.323254038E-3
2.084528125E0,1.059240326E-1,2.526713014E-1,-2.984513063E-3
2.089490625E0,1.059240326E-1,2.526713014E-1,-2.984513063E-3
2.094454688E0,1.127831787E-1,2.637366951E-1,7.155850180E-4
2.099417188E0,1.127831787E-1,2.637366951E-1,7.155850180E-4
2.104379688E0,1.179493517E-1,2.670877278E-1,4.974188283E-3
2.109343750E0,1.179493517E-1,2.670877278E-1,4.974188283E-3
2.114306250E0,1.198343039E-1,2.768790424E-1,1.052433532E-2
2.119270313E0,1.198343039E-1,2.768790424E-1,1.052433532E-2
2.124234375E0,1.160992980E-1,3.090279996E-1,1.710422710E-2
2.129195313E0,1.160992980E-1,3.090279996E-1,1.710422710E-2
2.134159375E0,1.073901057E-1,3.809879124E-1,3.152064607E-2
2.139123438E0,1.073901057E-1,3.809879124E-1,3.152064607E-2
2.144085938E0,9.456194192E-2,4.823217392E-1,5.729915947E-2
2.149048438E0,9.456194192E-2,4.823217392E-1,5.729915947E-2
2.154012500E0,8.192575723E-2,6.196966171E-1,9.526006877E-2
2.158975000E0,8.192575723E-2,6.196966171E-1,9.526006877E-2
2.163937500E0,7.189010829E-2,7.196690440E-1,1.322959512E-1
2.168901563E0,7.189010829E-2,7.196690440E-1,1.322959512E-1
2.173865625E0,6.564183533E-2,8.072845936E-1,1.658935398E-1
2.178828125E0,6.564183533E-2,8.072845936E-1,1.658935398E-1
2.183790625E0,6.091199070E-2,8.658753037E-1,1.872389168E-1
2.188754688E0,6.091199070E-2,8.658753037E-1,1.872389168E-1
2.193717188E0,5.729915947E-2,8.473398685E-1,1.909913868E-1
2.198679688E0,5.729915947E-2,8.473398685E-1,1.909913868E-1
2.203643750E0,5.503023043E-2,7.881732583E-1,1.847605556E-1
2.208606250E0,5.503023043E-2,7.881732583E-1,1.847605556E-1
2.213570313E0,5.544910952E-2,7.251668572E-1,1.740093231E-1
2.218532813E0,5.544910952E-2,7.251668572E-1,1.740093231E-1
2.223496875E0,5.981243402E-2,6.596471667E-1,1.615825742E-1
2.228459375E0,5.981243402E-2,6.596471667E-1,1.615825742E-1
2.233423438E0,6.750933826E-2,6.030461788E-1,1.484053433E-1
2.238385938E0,6.750933826E-2,6.030461788E-1,1.484053433E-1
2.243350000E0,8.052948862E-2,5.603379607E-1,1.350710243E-1
2.248312500E0,8.052948862E-2,5.603379607E-1,1.350710243E-1
2.253276563E0,9.344492853E-2,5.215392709E-1,1.214923710E-1
2.258239063E0,9.344492853E-2,5.215392709E-1,1.214923710E-1
2.263201563E0,1.044579521E-1,4.750786126E-1,1.079486161E-1
2.268165625E0,1.044579521E-1,4.750786126E-1,1.079486161E-1
2.273128125E0,1.089783609E-1,4.257207215E-1,9.635962546E-2
2.278090625E0,1.089783609E-1,4.257207215E-1,9.635962546E-2
2.283054688E0,1.146506816E-1,3.966260850E-1,8.566076308E-2
2.288017188E0,1.146506816E-1,3.966260850E-1,8.566076308E-2
2.292981250E0,1.203753576E-1,3.724009097E-1,7.330382615E-2
2.297943750E0,1.203753576E-1,3.724009097E-1,7.330382615E-2
2.302906250E0,1.140572652E-1,3.259053230E-1,5.717698485E-2
2.307870313E0,1.140572652E-1,3.259053230E-1,5.717698485E-2
2.312832813E0,1.074075624E-1,3.096563220E-1,4.682718217E-2
2.317796875E0,1.074075624E-1,3.096563220E-1,4.682718217E-2
2.322759375E0,1.079486161E-1,3.306700885E-1,4.536110535E-2
2.327723438E0,1.079486161E-1,3.306700885E-1,4.536110535E-2
2.332687500E0,1.143888757E-1,3.226939142E-1,4.138175771E-2
2.337650000E0,1.143888757E-1,3.226939142E-1,4.138175771E-2
2.342612500E0,1.192059889E-1,3.096213937E-1,4.187044874E-2
2.347575000E0,1.192059889E-1,3.096213937E-1,4.187044874E-2
2.352539063E0,1.233773232E-1,3.492927551E-1,4.963716492E-2
2.357503125E0,1.233773232E-1,3.492927551E-1,4.963716492E-2
2.362465625E0,1.317025423E-1,3.844611347E-1,5.441936478E-2
2.367429688E0,1.317025423E-1,3.844611347E-1,5.441936478E-2
2.372390625E0,1.394867152E-1,4.263839424E-1,5.756095797E-2
2.377354688E0,1.394867152E-1,4.263839424E-1,5.756095797E-2
2.382317188E0,1.472359747E-1,4.605400264E-1,6.768386811E-2
2.387281250E0,1.472359747E-1,4.605400264E-1,6.768386811E-2
2.392243750E0,1.512153298E-1,5.324650407E-1,8.457865566E-2
2.397207813E0,1.512153298E-1,5.324650407E-1,8.457865566E-2
2.402170313E0,1.509011686E-1,5.935341120E-1,1.006007791E-1
2.407132813E0,1.509011686E-1,5.935341120E-1,1.006007791E-1
2.412096875E0,1.506568193E-1,6.233443618E-1,1.127482727E-1
2.417059375E0,1.506568193E-1,6.233443618E-1,1.127482727E-1
2.422023438E0,1.538333148E-1,6.292784810E-1,1.191710830E-1
2.426985938E0,1.538333148E-1,6.292784810E-1,1.191710830E-1
2.431950000E0,1.616000384E-1,5.915967822E-1,1.171115935E-1
2.436912500E0,1.616000384E-1,5.915967822E-1,1.171115935E-1
2.441875000E0,1.722290963E-1,5.402492285E-1,1.102524474E-1
2.446839063E0,1.722290963E-1,5.402492285E-1,1.102524474E-1
2.451801563E0,1.848652810E-1,5.047841072E-1,1.013687253E-1
2.456765625E0,1.848652810E-1,5.047841072E-1,1.013687253E-1
2.461728125E0,2.016727924E-1,4.527035058E-1,8.874998987E-2
2.466690625E0,2.016727924E-1,4.527035058E-1,8.874998987E-2
2.471654688E0,2.187944800E-1,4.100476503E-1,7.609635592E-2
2.476617188E0,2.187944800E-1,4.100476503E-1,7.609635592E-2
2.481581250E0,2.312561274E-1,3.782826662E-1,6.656685472E-2
2.486543750E0,2.312561274E-1,3.782826662E-1,6.656685472E-2
2.491507813E0,2.369808108E-1,3.462558687E-1,5.691518635E-2
2.496470313E0,2.369808108E-1,3.462558687E-1,5.691518635E-2
2.501432813E0,2.359859645E-1,3.007202148E-1,3.946189582E-2
2.506396875E0,2.359859645E-1,3.007202148E-1,3.946189582E-2
2.511359375E0,2.300692946E-1,2.332807034E-1,1.588249579E-2
2.516323438E0,2.300692946E-1,2.332807034E-1,1.588249579E-2
2.521285938E0,2.253743708E-1,1.780584902E-1,-6.824237294E-3
2.526250000E0,2.253743708E-1,1.780584902E-1,-6.824237294E-3
2.531212500E0,2.247809470E-1,1.319468915E-1,-2.530727349E-2
2.536175000E0,2.247809470E-1,1.319468915E-1,-2.530727349E-2
2.541139063E0,2.259154171E-1,1.031664088E-1,-4.016002640E-2
2.546101563E0,2.259154171E-1,1.031664088E-1,-4.016002640E-2
2.551065625E0,2.269277126E-1,1.185776666E-1,-4.869468510E-2
2.556028125E0,2.269277126E-1,1.185776666E-1,-4.869468510E-2
2.560992188E0,2.262121290E-1,1.555088311E-1,-5.073672161E-2
2.565956250E0,2.262121290E-1,1.555088311E-1,-5.073672161E-2
2.570917188E0,2.233323306E-1,2.200511098E-1,-4.633849114E-2
2.575881250E0,2.233323306E-1,2.200511098E-1,-4.633849114E-2
2.580845313E0,2.174854726E-1,2.703514993E-1,-3.968878835E-2
2.585807813E0,2.174854726E-1,2.703514993E-1,-3.968878835E-2
2.590771875E0,2.098933011E-1,3.233571351E-1,-3.003711626E-2
2.595734375E0,2.098933011E-1,3.233571351E-1,-3.003711626E-2
2.600696875E0,2.002241760E-1,3.174404800E-1,-2.141519077E-2
2.605659375E0,2.002241760E-1,3.174404800E-1,-2.141519077E-2
2.610625000E0,1.877799779E-1,2.568252087E-1,-1.766273193E-2
2.615587500E0,1.877799779E-1,2.568252087E-1,-1.766273193E-2
2.620550000E0,1.741664112E-1,2.314132005E-1,-1.130973361E-2
2.625514063E0,1.741664112E-1,2.314132005E-1,-1.130973361E-2
2.630476563E0,1.581268311E-1,2.306278050E-1,2.443460980E-3
2.635439063E0,1.581268311E-1,2.306278050E-1,2.443460980E-3
2.640403125E0,1.401150376E-1,2.354623675E-1,1.685987972E-2
2.645365625E0,1.401150376E-1,2.354623675E-1,1.685987972E-2
2.650328125E0,1.245117858E-1,2.600889504E-1,3.534291685E-2
2.655292188E0,1.245117858E-1,2.600889504E-1,3.534291685E-2
2.660254688E0,1.104444340E-1,2.761634588E-1,4.853760451E-2
2.665217188E0,1.104444340E-1,2.761634588E-1,4.853760451E-2
2.670181250E0,9.094911069E-2,2.679255009E-1,5.129522830E-2
2.675143750E0,9.094911069E-2,2.679255009E-1,5.129522830E-2
2.680107813E0,6.384414434E-2,2.404889166E-1,4.796164855E-2
2.685070313E0,6.384414434E-2,2.404889166E-1,4.796164855E-2
2.690034375E0,3.281218931E-2,2.081654221E-1,4.129448906E-2
2.694996875E0,3.281218931E-2,2.081654221E-1,4.129448906E-2
2.699960938E0,4.921828397E-3,1.769240201E-1,3.513347730E-2
2.704923438E0,4.921828397E-3,1.769240201E-1,3.513347730E-2
2.709887500E0,-1.027998887E-2,1.560498923E-1,3.106686100E-2
2.714850000E0,-1.027998887E-2,1.560498923E-1,3.106686100E-2
2.719812500E0,-7.330382708E-3,1.381428093E-1,2.757620253E-2
2.724776563E0,-7.330382708E-3,1.381428093E-1,2.757620253E-2
2.729739063E0,-2.914699726E-3,1.245466918E-1,2.380629070E-2
2.734703125E0,-2.914699726E-3,1.245466918E-1,2.380629070E-2
2.739665625E0,-2.792526793E-4,1.137081981E-1,1.769763790E-2
2.744628125E0,-2.792526793E-4,1.137081981E-1,1.769763790E-2
2.749592188E0,1.047197497E-3,1.138303727E-1,1.061160211E-2
2.754554688E0,1.047197497E-3,1.138303727E-1,1.061160211E-2
2.759517188E0,1.117010717E-3,1.319992542E-1,3.333578818E-3
2.764481250E0,1.117010717E-3,1.319992542E-1,3.333578818E-3
2.769445313E0,5.305801053E-3,1.291369051E-1,-5.951572675E-3
2.774407813E0,5.305801053E-3,1.291369051E-1,-5.951572675E-3
2.779370313E0,1.195550524E-2,1.379508227E-1,-1.469567232E-2
2.784334375E0,1.195550524E-2,1.379508227E-1,-1.469567232E-2
2.789296875E0,2.206096239E-2,1.520007253E-1,-1.827359758E-2
2.794259375E0,2.206096239E-2,1.520007253E-1,-1.827359758E-2
2.799223438E0,3.200933710E-2,1.527686715E-1,-1.836086437E-2
2.804187500E0,3.200933710E-2,1.527686715E-1,-1.836086437E-2
2.809150000E0,3.855432197E-2,1.733111888E-1,-1.481784508E-2
2.814112500E0,3.855432197E-2,1.733111888E-1,-1.481784508E-2
2.819076563E0,3.869394958E-2,1.708328277E-1,-1.085594762E-2
2.824039063E0,3.869394958E-2,1.708328277E-1,-1.085594762E-2
2.829003125E0,3.298672289E-2,1.807463020E-1,-7.539822254E-3
2.833965625E0,3.298672289E-2,1.807463020E-1,-7.539822254E-3
2.838928125E0,2.696533687E-2,1.799434423E-1,-5.619960371E-3
2.843892188E0,2.696533687E-2,1.799434423E-1,-5.619960371E-3
2.848854688E0,2.096140385E-2,1.829454154E-1,-2.513274085E-3
2.853818750E0,2.096140385E-2,1.829454154E-1,-2.513274085E-3
2.858781250E0,1.644100063E-2,1.821774691E-1,4.118977115E-3
2.863743750E0,1.644100063E-2,1.821774691E-1,4.118977115E-3
2.868707813E0,1.281071641E-2,1.842893213E-1,1.631882787E-2
2.873670313E0,1.281071641E-2,1.842893213E-1,1.631882787E-2
2.878634375E0,1.954768784E-3,2.146580368E-1,3.277728334E-2
2.883596875E0,1.954768784E-3,2.146580368E-1,3.277728334E-2
2.888560938E0,-1.485275198E-2,2.239257395E-1,4.714134336E-2
2.893523438E0,-1.485275198E-2,2.239257395E-1,4.714134336E-2
2.898485938E0,-3.492403775E-2,2.289348394E-1,6.024876609E-2
2.903450000E0,-3.492403775E-2,2.289348394E-1,6.024876609E-2
2.908412500E0,-4.883431271E-2,2.307150662E-1,6.829473376E-2
2.913376563E0,-4.883431271E-2,2.307150662E-1,6.829473376E-2
2.918339063E0,-5.937610194E-2,2.192133516E-1,6.974335760E-2
2.923303125E0,-5.937610194E-2,2.192133516E-1,6.974335760E-2
2.928265625E0,-6.422811747E-2,2.119702399E-1,6.839945167E-2
2.933228125E0,-6.422811747E-2,2.119702399E-1,6.839945167E-2
2.938192188E0,-6.045820564E-2,2.124414742E-1,6.721262634E-2
2.943154688E0,-6.045820564E-2,2.124414742E-1,6.721262634E-2
2.948118750E0,-5.225515738E-2,2.111848444E-1,6.656685472E-2
2.953081250E0,-5.225515738E-2,2.111848444E-1,6.656685472E-2
2.958045313E0,-4.396484420E-2,2.024407387E-1,6.359979510E-2
2.963007813E0,-4.396484420E-2,2.024407387E-1,6.359979510E-2
2.967970313E0,-3.810053691E-2,1.851096153E-1,5.688028038E-2
2.972934375E0,-3.810053691E-2,1.851096153E-1,5.688028038E-2
2.977896875E0,-3.314380348E-2,1.775872558E-1,4.982915148E-2
2.982860938E0,-3.314380348E-2,1.775872558E-1,4.982915148E-2
2.987823438E0,-2.193878777E-2,1.848303676E-1,4.436627030E-2
2.992785938E0,-2.193878777E-2,1.848303676E-1,4.436627030E-2
2.997750000E0,-2.914699726E-3,1.908517480E-1,4.035201296E-2
3.002712500E0,-2.914699726E-3,1.908517480E-1,4.035201296E-2
3.007676563E0,2.305579931E-2,2.049714625E-1,3.644247353E-2
3.012639063E0,2.305579931E-2,2.049714625E-1,3.644247353E-2
3.017603125E0,5.263913050E-2,2.016727924E-1,2.986258268E-2
3.022565625E0,5.263913050E-2,2.016727924E-1,2.986258268E-2
3.027528125E0,7.787659019E-2,1.783901006E-1,2.094395086E-2
3.032492188E0,7.787659019E-2,1.783901006E-1,2.094395086E-2
3.037454688E0,8.925613761E-2,1.783377379E-1,1.305506285E-2
3.042418750E0,8.925613761E-2,1.783377379E-1,1.305506285E-2
3.047381250E0,9.538224339E-2,1.794198453E-1,7.347836159E-3
3.052345313E0,9.538224339E-2,1.794198453E-1,7.347836159E-3
3.057307813E0,9.693558514E-2,1.385965943E-1,-1.745329209E-4
3.062271875E0,9.693558514E-2,1.385965943E-1,-1.745329209E-4
3.067262500E0,9.506808221E-2,1.041263416E-1,-8.115780540E-3
3.072196875E0,9.506808221E-2,1.041263416E-1,-8.115780540E-3
3.077160938E0,9.061749279E-2,7.974409312E-2,-1.284562331E-2
3.082123438E0,9.061749279E-2,7.974409312E-2,-1.284562331E-2
3.087085938E0,8.468337357E-2,7.864453644E-2,-1.120501384E-2
3.092050000E0,8.468337357E-2,7.864453644E-2,-1.120501384E-2
3.097012500E0,7.936012000E-2,8.080874383E-2,-7.138396613E-3
3.101976563E0,7.936012000E-2,8.080874383E-2,-7.138396613E-3
3.106939063E0,7.532840967E-2,7.876671106E-2,-3.525565146E-3
3.111903125E0,7.532840967E-2,7.876671106E-2,-3.525565146E-3
3.116865625E0,6.927211583E-2,7.010987401E-2,-2.513274085E-3
3.121829688E0,6.927211583E-2,7.010987401E-2,-2.513274085E-3
3.126792188E0,5.927138031E-2,6.312856078E-2,5.061454722E-4
3.131754688E0,5.927138031E-2,6.312856078E-2,5.061454722E-4
3.136718750E0,5.010840297E-2,6.161012128E-2,7.714355364E-3
3.141681250E0,5.010840297E-2,6.161012128E-2,7.714355364E-3
3.146645313E0,4.290019348E-2,7.949974388E-2,2.176425606E-2
3.151607813E0,4.290019348E-2,7.949974388E-2,2.176425606E-2
3.156570313E0,3.794345632E-2,1.126435474E-1,4.026474431E-2
3.161534375E0,3.794345632E-2,1.126435474E-1,4.026474431E-2
3.166496875E0,2.487094142E-2,1.445830762E-1,5.677555874E-2
3.171460938E0,2.487094142E-2,1.445830762E-1,5.677555874E-2
3.176425000E0,3.961897455E-3,1.765051484E-1,7.094763219E-2
3.181387500E0,3.961897455E-3,1.765051484E-1,7.094763219E-2
3.186350000E0,-2.054252476E-2,1.967160553E-1,8.011060953E-2
3.191314063E0,-2.054252476E-2,1.967160553E-1,8.011060953E-2
3.196276563E0,-4.115486518E-2,2.021789402E-1,8.508480340E-2
3.201240625E0,-4.115486518E-2,2.021789402E-1,8.508480340E-2
3.206203125E0,-5.288347602E-2,2.016029805E-1,8.618436009E-2
3.211165625E0,-5.288347602E-2,2.016029805E-1,8.618436009E-2
3.216128125E0,-5.281366408E-2,2.012190074E-1,8.168140799E-2
3.221092188E0,-5.281366408E-2,2.012190074E-1,8.168140799E-2
3.226054688E0,-4.867723212E-2,2.088286430E-1,7.459536940E-2
3.231018750E0,-4.867723212E-2,2.088286430E-1,7.459536940E-2
3.235982813E0,-4.187044874E-2,2.262295783E-1,6.691592187E-2
3.240945313E0,-4.187044874E-2,2.262295783E-1,6.691592187E-2
3.245907813E0,-3.506366536E-2,2.434559762E-1,5.989969894E-2
3.250871875E0,-3.506366536E-2,2.434559762E-1,5.989969894E-2
3.255834375E0,-2.953097038E-2,2.696184516E-1,5.452408642E-2
3.260798438E0,-2.953097038E-2,2.696184516E-1,5.452408642E-2
3.265760938E0,-2.563888580E-2,2.999871969E-1,4.279547185E-2
3.270723438E0,-2.563888580E-2,2.999871969E-1,4.279547185E-2
3.275687500E0,-2.270673402E-2,3.020815849E-1,2.387610450E-2
3.280650000E0,-2.270673402E-2,3.020815849E-1,2.387610450E-2
3.285614063E0,-1.963495463E-2,2.703166008E-1,3.892084118E-3
3.290576563E0,-1.963495463E-2,2.703166008E-1,3.892084118E-3
3.295540625E0,-1.429424621E-2,2.151641846E-1,-8.604473434E-3
3.300503125E0,-1.429424621E-2,2.151641846E-1,-8.604473434E-3
3.305465625E0,-8.639379404E-3,1.630137563E-1,-1.007054932E-2
3.310429688E0,-8.639379404E-3,1.630137563E-1,-1.007054932E-2
3.315392188E0,-5.427973811E-3,1.402372122E-1,-5.672320258E-3
3.320356250E0,-5.427973811E-3,1.402372122E-1,-5.672320258E-3
3.325318750E0,-3.316125600E-3,1.289623827E-1,-1.326450263E-3
3.330282813E0,-3.316125600E-3,1.289623827E-1,-1.326450263E-3
3.335245313E0,-3.420845373E-3,1.194503307E-1,5.061454722E-4
3.340207813E0,-3.420845373E-3,1.194503307E-1,5.061454722E-4
3.345170313E0,-5.497787148E-3,1.100953668E-1,1.797689125E-3
3.350134375E0,-5.497787148E-3,1.100953668E-1,1.797689125E-3
3.355096875E0,-7.731808349E-3,1.089085415E-1,6.335545331E-3
3.360059375E0,-7.731808349E-3,1.089085415E-1,6.335545331E-3
3.365025000E0,-8.656833321E-3,1.014908925E-1,1.185078546E-2
3.369987500E0,-8.656833321E-3,1.014908925E-1,1.185078546E-2
3.374950000E0,-1.029744279E-2,1.219286993E-1,2.155481651E-2
3.379912500E0,-1.029744279E-2,1.219286993E-1,2.155481651E-2
3.384875000E0,-2.321287990E-2,1.509011686E-1,3.457497060E-2
3.389839063E0,-2.321287990E-2,1.509011686E-1,3.457497060E-2
3.394801563E0,-4.766494036E-2,1.692096740E-1,4.626867920E-2
3.399765625E0,-4.766494036E-2,1.692096740E-1,4.626867920E-2
3.404729688E0,-7.588691264E-2,1.859299242E-1,5.511749908E-2
3.409692188E0,-7.588691264E-2,1.859299242E-1,5.511749908E-2
3.414656250E0,-9.934414178E-2,2.112371922E-1,6.325073540E-2
3.419617188E0,-9.934414178E-2,2.112371922E-1,6.325073540E-2
3.424582813E0,-1.174606606E-1,2.561096251E-1,7.195992768E-2
3.429543750E0,-1.174606606E-1,2.561096251E-1,7.195992768E-2
3.434507813E0,-1.254717261E-1,3.253991902E-1,8.395033330E-2
3.439471875E0,-1.254717261E-1,3.253991902E-1,8.395033330E-2
3.444434375E0,-1.190489084E-1,4.113566577E-1,1.012814566E-1
3.449398438E0,-1.190489084E-1,4.113566577E-1,1.012814566E-1
3.454360938E0,-1.029744223E-1,4.963018298E-1,1.188220158E-1
3.459323438E0,-1.029744223E-1,4.963018298E-1,1.188220158E-1
3.464285938E0,-8.578293025E-2,5.494121909E-1,1.294161677E-1
3.469250000E0,-8.578293025E-2,5.494121909E-1,1.294161677E-1
3.474212500E0,-7.194247097E-2,5.585576892E-1,1.304109991E-1
3.479176563E0,-7.194247097E-2,5.585576892E-1,1.304109991E-1
3.484140625E0,-6.262241304E-2,5.162858367E-1,1.211083978E-1
3.489103125E0,-6.262241304E-2,5.162858367E-1,1.211083978E-1
3.494067188E0,-5.623450875E-2,4.711865485E-1,1.082976833E-1
3.499029688E0,-5.623450875E-2,4.711865485E-1,1.082976833E-1
3.503992188E0,-4.871213809E-2,4.227536619E-1,9.438740462E-2
3.508954688E0,-4.871213809E-2,4.227536619E-1,9.438740462E-2
3.513918750E0,-3.553490341E-2,3.804817796E-1,8.077383786E-2
3.518881250E0,-3.553490341E-2,3.804817796E-1,8.077383786E-2
3.523843750E0,-1.783726551E-2,3.552617729E-1,7.096508890E-2
3.528807813E0,-1.783726551E-2,3.552617729E-1,7.096508890E-2
3.533770313E0,-2.391101094E-3,3.109129667E-1,6.085963175E-2
3.538734375E0,-2.391101094E-3,3.109129667E-1,6.085963175E-2
3.543696875E0,5.794493016E-3,2.656041980E-1,4.583234712E-2
3.548660938E0,5.794493016E-3,2.656041980E-1,4.583234712E-2
3.553623438E0,7.993607782E-3,2.142042518E-1,2.989749052E-2
3.558585938E0,7.993607782E-3,2.142042518E-1,2.989749052E-2
3.563550000E0,7.871435024E-3,1.770636588E-1,2.061233856E-2
3.568512500E0,7.871435024E-3,1.770636588E-1,2.061233856E-2
3.573476563E0,8.534659632E-3,1.667836607E-1,2.174680308E-2
3.578439063E0,8.534659632E-3,1.667836607E-1,2.174680308E-2
3.583401563E0,1.089085452E-2,1.642703861E-1,2.612757869E-2
3.588365625E0,1.089085452E-2,1.642703861E-1,2.612757869E-2
3.593328125E0,1.179842558E-2,1.602386832E-1,2.850122750E-2
3.598292188E0,1.179842558E-2,1.602386832E-1,2.850122750E-2
3.603254688E0,1.000073645E-2,1.446354389E-1,2.574360557E-2
3.608218750E0,1.000073645E-2,1.446354389E-1,2.574360557E-2
3.613181250E0,7.731808349E-3,1.537111402E-1,3.024655581E-2
3.618143750E0,7.731808349E-3,1.537111402E-1,3.024655581E-2
3.623107813E0,7.522369269E-3,1.879196018E-1,3.977605328E-2
3.628070313E0,7.522369269E-3,1.879196018E-1,3.977605328E-2
3.633034375E0,7.312929723E-3,2.472433448E-1,4.747295380E-2
3.637996875E0,7.312929723E-3,2.472433448E-1,4.747295380E-2
3.642960938E0,3.717551241E-3,3.030589819E-1,4.838052765E-2
3.647923438E0,3.717551241E-3,3.030589819E-1,4.838052765E-2
3.652885938E0,-5.288347602E-3,3.508111835E-1,4.607669264E-2
3.657850000E0,-5.288347602E-3,3.508111835E-1,4.607669264E-2
3.662812500E0,-1.694714651E-2,3.713886142E-1,4.401720315E-2
3.667776563E0,-1.694714651E-2,3.713886142E-1,4.401720315E-2
3.672739063E0,-2.487094142E-2,3.917391598E-1,4.331907257E-2
3.677703125E0,-2.487094142E-2,3.917391598E-1,4.331907257E-2
3.682665625E0,-2.982767671E-2,4.194549918E-1,4.317944497E-2
3.687628125E0,-2.982767671E-2,4.194549918E-1,4.317944497E-2
3.692592188E0,-3.256784379E-2,4.136604965E-1,4.115486518E-2
3.697554688E0,-3.256784379E-2,4.136604965E-1,4.115486518E-2
3.702518750E0,-3.363249451E-2,3.714409769E-1,3.663446009E-2
3.707482813E0,-3.363249451E-2,3.714409769E-1,3.663446009E-2
3.712445313E0,-3.096214123E-2,3.307922482E-1,3.143338114E-2
3.717407813E0,-3.096214123E-2,3.307922482E-1,3.143338114E-2
3.722370313E0,-2.623229846E-2,2.956587672E-1,2.391101047E-2
3.727334375E0,-2.623229846E-2,2.956587672E-1,2.391101047E-2
3.732296875E0,-3.909537569E-3,5.791002512E-2,3.071779385E-3
3.737260938E0,-3.909537569E-3,5.791002512E-2,3.071779385E-3
3.742223438E0,-3.316125600E-3,6.199409440E-2,1.012290944E-3
3.747187500E0,-3.316125600E-3,6.199409440E-2,1.012290944E-3
3.752150000E0,-2.879793290E-3,7.272786647E-2,-1.675516134E-3
3.757114063E0,-2.879793290E-3,7.272786647E-2,-1.675516134E-3
3.762078125E0,-2.705260413E-3,7.730063051E-2,-5.235987715E-3
3.767039063E0,-2.705260413E-3,7.730063051E-2,-5.235987715E-3
3.772003125E0,-2.652900526E-3,7.897614688E-2,-9.075712413E-3
3.776965625E0,-2.652900526E-3,7.897614688E-2,-9.075712413E-3
3.781929688E0,-2.687806962E-3,7.712610066E-2,-1.254891697E-2
3.786892188E0,-2.687806962E-3,7.712610066E-2,-1.254891697E-2
3.791854688E0,-2.565633971E-3,8.105309308E-2,-1.480039209E-2
3.796818750E0,-2.565633971E-3,8.105309308E-2,-1.480039209E-2
3.801781250E0,-2.251474652E-3,9.176941216E-2,-1.553343050E-2
3.806745313E0,-2.251474652E-3,9.176941216E-2,-1.553343050E-2
3.811707813E0,-2.111848444E-3,9.138543904E-2,-1.631882787E-2
3.816671875E0,-2.111848444E-3,9.138543904E-2,-1.631882787E-2
3.821634375E0,-1.919862116E-3,9.597565234E-2,-1.649336144E-2
3.826596875E0,-1.919862116E-3,9.597565234E-2,-1.649336144E-2
3.831560938E0,-1.797689125E-3,9.923942387E-2,-1.637118869E-2
3.836523438E0,-1.797689125E-3,9.923942387E-2,-1.637118869E-2
3.841487500E0,-1.727875904E-3,1.036900133E-1,-1.593485661E-2
3.846450000E0,-1.727875904E-3,1.036900133E-1,-1.593485661E-2
3.851414063E0,-1.745329238E-3,1.062032878E-1,-1.560324337E-2
3.856376563E0,-1.745329238E-3,1.062032878E-1,-1.560324337E-2
3.861340625E0,-1.658062800E-3,1.049815565E-1,-1.553343050E-2
3.866303125E0,-1.658062800E-3,1.049815565E-1,-1.553343050E-2
3.871265625E0,-1.553343027E-3,1.094146892E-1,-1.509709843E-2
3.876229688E0,-1.553343027E-3,1.094146892E-1,-1.509709843E-2
3.881192188E0,-1.169370604E-3,1.179493517E-1,-1.425934024E-2
3.886156250E0,-1.169370604E-3,1.179493517E-1,-1.425934024E-2
3.891118750E0,-8.028514567E-4,1.238485649E-1,-1.352630183E-2
3.896082813E0,-8.028514567E-4,1.238485649E-1,-1.352630183E-2
3.901045313E0,-6.108652451E-4,1.306204349E-1,-1.284562331E-2
3.906007813E0,-6.108652451E-4,1.306204349E-1,-1.284562331E-2
3.910971875E0,-4.886921961E-4,1.419999897E-1,-1.192059834E-2
3.915934375E0,-4.886921961E-4,1.419999897E-1,-1.192059834E-2
3.920896875E0,-3.124139272E-3,7.362322211E-1,-5.895722285E-2
3.925860938E0,-3.124139272E-3,7.362322211E-1,-5.895722285E-2
3.930823438E0,-3.001966281E-3,7.054271698E-1,-5.038765445E-2
3.935787500E0,-3.001966281E-3,7.054271698E-1,-5.038765445E-2
3.940750000E0,-1.884955564E-3,7.064045668E-1,-4.077089205E-2
3.945714063E0,-1.884955564E-3,7.064045668E-1,-4.077089205E-2
3.950676563E0,-1.291543595E-3,6.760183573E-1,-3.331833705E-2
3.955639063E0,-1.291543595E-3,6.760183573E-1,-3.331833705E-2
3.960603125E0,-6.283185212E-4,6.572735310E-1,-2.576106042E-2
3.965565625E0,-6.283185212E-4,6.572735310E-1,-2.576106042E-2
3.970529688E0,1.047197584E-4,6.301336884E-1,-2.047271281E-2
3.975492188E0,1.047197584E-4,6.301336884E-1,-2.047271281E-2
3.980456250E0,8.203047328E-4,6.210230589E-1,-1.570796408E-2
3.985418750E0,8.203047328E-4,6.210230589E-1,-1.570796408E-2
3.990381250E0,1.431170036E-3,6.252642274E-1,-1.123992074E-2
3.995345313E0,1.431170036E-3,6.252642274E-1,-1.123992074E-2
4.000307813E0,2.042035107E-3,6.317743063E-1,-6.806783844E-3
4.005271875E0,2.042035107E-3,6.317743063E-1,-6.806783844E-3
4.010234375E0,2.565633971E-3,5.973389149E-1,-6.736970972E-3
4.015196875E0,2.565633971E-3,5.973389149E-1,-6.736970972E-3
4.020160938E0,4.223696887E-3,5.712113380E-1,-1.087340154E-2
4.025123438E0,4.223696887E-3,5.712113380E-1,-1.087340154E-2
4.030087500E0,7.679448463E-3,5.557302833E-1,-1.740093343E-2
4.035050000E0,7.679448463E-3,5.557302833E-1,-1.740093343E-2
4.040014063E0,1.247910410E-2,5.851216316E-1,-2.179916203E-2
4.044976563E0,1.247910410E-2,5.851216316E-1,-2.179916203E-2
4.049939063E0,1.525417715E-2,5.982639790E-1,-2.544690110E-2
4.054903125E0,1.525417715E-2,5.982639790E-1,-2.544690110E-2
4.059895313E0,1.754055917E-2,6.055594087E-1,-2.666863054E-2
4.064829688E0,1.754055917E-2,6.055594087E-1,-2.666863054E-2
4.069792188E0,4.066617228E-3,1.038819999E-1,-5.707226694E-3
4.074756250E0,4.066617228E-3,1.038819999E-1,-5.707226694E-3
4.079718750E0,5.131267942E-3,1.057145894E-1,-6.911503617E-3
4.084681250E0,5.131267942E-3,1.057145894E-1,-6.911503617E-3
4.089645313E0,6.073745899E-3,1.046150327E-1,-8.063420653E-3
4.094607813E0,6.073745899E-3,1.046150327E-1,-8.063420653E-3
4.099571875E0,7.208209950E-3,1.052957103E-1,-9.162978269E-3
4.104534375E0,7.208209950E-3,1.052957103E-1,-9.162978269E-3
4.109498438E0,8.255407214E-3,1.049291939E-1,-1.014036313E-2
4.114460938E0,8.255407214E-3,1.049291939E-1,-1.014036313E-2
4.119423438E0,9.442231618E-3,1.056273282E-1,-1.083849464E-2
4.124387500E0,9.442231618E-3,1.056273282E-1,-1.083849464E-2
4.129350000E0,1.158898603E-2,1.089958102E-1,-1.097812131E-2
4.134314063E0,1.158898603E-2,1.089958102E-1,-1.097812131E-2
4.139276563E0,7.145377994E-2,5.729741454E-1,-5.569345504E-2
4.144240625E0,7.145377994E-2,5.729741454E-1,-5.569345504E-2
4.149203125E0,7.806857675E-2,5.692740679E-1,-4.612905160E-2
4.154165625E0,7.806857675E-2,5.692740679E-1,-4.612905160E-2
4.159129688E0,8.271115273E-2,5.469512939E-1,-3.850196302E-2
4.164092188E0,8.271115273E-2,5.469512939E-1,-3.850196302E-2
4.169056250E0,8.541641384E-2,5.646139979E-1,-3.080506064E-2
4.174018750E0,8.541641384E-2,5.646139979E-1,-3.080506064E-2
4.178982813E0,8.464846760E-2,6.043551564E-1,-2.323033288E-2
4.183945313E0,8.464846760E-2,6.043551564E-1,-2.323033288E-2
4.188907813E0,8.131489158E-2,6.121916771E-1,-1.822123677E-2
4.193871875E0,8.131489158E-2,6.121916771E-1,-1.822123677E-2
4.198834375E0,7.454301417E-2,5.845980048E-1,-1.670280099E-2
4.203798438E0,7.454301417E-2,5.845980048E-1,-1.670280099E-2
4.208760938E0,6.585127115E-2,5.648757815E-1,-1.939060725E-2
4.213725000E0,6.585127115E-2,5.648757815E-1,-1.939060725E-2
4.218687500E0,5.817182362E-2,5.485395193E-1,-2.787290886E-2
4.223651563E0,5.817182362E-2,5.485395193E-1,-2.787290886E-2
4.228614063E0,5.337216705E-2,4.662123621E-1,-4.522148147E-2
4.233576563E0,5.337216705E-2,4.662123621E-1,-4.522148147E-2
4.238540625E0,5.075417459E-2,4.196644127E-1,-6.150540337E-2
4.243503125E0,5.075417459E-2,4.196644127E-1,-6.150540337E-2
4.248465625E0,4.921828583E-2,3.655592203E-1,-7.220426947E-2
4.253429688E0,4.921828583E-2,3.655592203E-1,-7.220426947E-2
4.258392188E0,4.733332992E-2,3.336895108E-1,-6.998769939E-2
4.263356250E0,4.733332992E-2,3.336895108E-1,-6.998769939E-2
4.268318750E0,4.502949491E-2,3.226066530E-1,-5.843362212E-2
4.273282813E0,4.502949491E-2,3.226066530E-1,-5.843362212E-2
4.278245313E0,4.249876738E-2,3.131120801E-1,-4.653047770E-2
4.283207813E0,4.249876738E-2,3.131120801E-1,-4.653047770E-2
4.288171875E0,3.731513768E-2,3.260624111E-1,-3.635520861E-2
4.293134375E0,3.731513768E-2,3.260624111E-1,-3.635520861E-2
4.298098438E0,3.129375353E-2,3.354697227E-1,-2.949606441E-2
4.303060938E0,3.129375353E-2,3.354697227E-1,-2.949606441E-2
4.308025000E0,2.621484548E-2,3.227113783E-1,-2.522000670E-2
4.312987500E0,2.621484548E-2,3.227113783E-1,-2.522000670E-2
4.317951563E0,2.305579931E-2,3.206344247E-1,-1.909390278E-2
4.322914063E0,2.305579931E-2,3.206344247E-1,-1.909390278E-2
4.327876563E0,1.963495463E-2,3.430095613E-1,-9.773843922E-3
4.332840625E0,1.963495463E-2,3.430095613E-1,-9.773843922E-3
4.337803125E0,1.315978263E-2,3.824365437E-1,-8.726646047E-5
4.342767188E0,1.315978263E-2,3.824365437E-1,-8.726646047E-5
4.347729688E0,5.759586347E-4,4.094367921E-1,7.051130291E-3
4.352692188E0,5.759586347E-4,4.094367921E-1,7.051130291E-3
4.357656250E0,-1.246165112E-2,4.053003490E-1,1.050688233E-2
4.362618750E0,-1.246165112E-2,4.053003490E-1,1.050688233E-2
4.367582813E0,-2.289872058E-2,3.665715158E-1,1.096066739E-2
4.372545313E0,-2.289872058E-2,3.665715158E-1,1.096066739E-2
4.377509375E0,-3.057816811E-2,3.396934271E-1,1.268854365E-2
4.382471875E0,-3.057816811E-2,3.396934271E-1,1.268854365E-2
4.387434375E0,-3.408627957E-2,3.207740486E-1,1.480039209E-2
4.392398438E0,-3.408627957E-2,3.207740486E-1,1.480039209E-2
4.397360938E0,-3.553490341E-2,3.046123087E-1,1.644100063E-2
4.402325000E0,-3.553490341E-2,3.046123087E-1,1.644100063E-2
4.407287500E0,-3.790855035E-2,2.831273079E-1,1.637118869E-2
4.412251563E0,-3.790855035E-2,2.831273079E-1,1.637118869E-2
4.417214063E0,-4.073598608E-2,2.340137511E-1,1.377064735E-2
4.422178125E0,-4.073598608E-2,2.340137511E-1,1.377064735E-2
4.427140625E0,-4.042182490E-2,1.593834609E-1,8.726646192E-3
4.432103125E0,-4.042182490E-2,1.593834609E-1,8.726646192E-3
4.437067188E0,-3.974114731E-2,7.283259183E-2,3.473205259E-3
4.442029688E0,-3.974114731E-2,7.283259183E-2,3.473205259E-3
4.446993750E0,-3.972369432E-2,2.113593742E-2,-3.316125658E-4
4.451956250E0,-3.972369432E-2,2.113593742E-2,-3.316125658E-4
4.456920313E0,-3.886848316E-2,-1.434660610E-2,-9.599311277E-3
4.461882813E0,-3.886848316E-2,-1.434660610E-2,-9.599311277E-3
4.466845313E0,-3.783873841E-2,-9.766862541E-2,-2.989749052E-2
4.471809375E0,-3.783873841E-2,-9.766862541E-2,-2.989749052E-2
4.476771875E0,-3.726277873E-2,-1.741140485E-1,-5.326744914E-2
4.481735938E0,-3.726277873E-2,-1.741140485E-1,-5.326744914E-2
4.486698438E0,-3.836233541E-2,-2.405063659E-1,-7.010987401E-2
4.491662500E0,-3.836233541E-2,-2.405063659E-1,-7.010987401E-2
4.496625000E0,-4.108504951E-2,-3.008249402E-1,-7.597418129E-2
4.501587500E0,-4.108504951E-2,-3.008249402E-1,-7.597418129E-2
4.506550000E0,-4.525638744E-2,-3.013660014E-1,-6.698573381E-2
4.511514063E0,-4.525638744E-2,-3.013660014E-1,-6.698573381E-2
4.516478125E0,-4.679227620E-2,-2.899864614E-1,-5.452408642E-2
4.521440625E0,-4.679227620E-2,-2.899864614E-1,-5.452408642E-2
4.526404688E0,-4.450589418E-2,-3.091676235E-1,-4.614650458E-2
4.531367188E0,-4.450589418E-2,-3.091676235E-1,-4.614650458E-2
4.536329688E0,-4.291764647E-2,-4.009893835E-1,-4.672246426E-2
4.541293750E0,-4.291764647E-2,-4.009893835E-1,-4.672246426E-2
4.546256250E0,-4.867723212E-2,-4.618839324E-1,-4.188790172E-2
4.551220313E0,-4.867723212E-2,-4.618839324E-1,-4.188790172E-2
4.556182813E0,-6.080726907E-2,-4.602607787E-1,-3.056071512E-2
4.561145313E0,-6.080726907E-2,-4.602607787E-1,-3.056071512E-2
4.566107813E0,-7.253587991E-2,-4.929333329E-1,-2.361430414E-2
4.571071875E0,-7.253587991E-2,-4.929333329E-1,-2.361430414E-2
4.576035938E0,-8.230973035E-2,-5.223770142E-1,-2.487094142E-2
4.580996875E0,-8.230973035E-2,-5.223770142E-1,-2.487094142E-2
4.585960938E0,-8.787732571E-2,-4.966334403E-1,-2.815216035E-2
4.590925000E0,-8.787732571E-2,-4.966334403E-1,-2.815216035E-2
4.595887500E0,-9.108873457E-2,-5.181707740E-1,-3.410373256E-2
4.600851563E0,-9.108873457E-2,-5.181707740E-1,-3.410373256E-2
4.605814063E0,-8.964011073E-2,-5.368458033E-1,-3.773401678E-2
4.610776563E0,-8.964011073E-2,-5.368458033E-1,-3.773401678E-2
4.615740625E0,-8.412487060E-2,-6.252467632E-1,-4.349360615E-2
4.620704688E0,-8.412487060E-2,-6.252467632E-1,-4.349360615E-2
4.625667188E0,-7.798130810E-2,-7.051653862E-1,-4.799655452E-2
4.630631250E0,-7.798130810E-2,-7.051653862E-1,-4.799655452E-2
4.635593750E0,-7.312929630E-2,-8.002858162E-1,-5.427974090E-2
4.640556250E0,-7.312929630E-2,-8.002858162E-1,-5.427974090E-2
4.645520313E0,-6.997025013E-2,-8.862258196E-1,-6.181956083E-2
4.650482813E0,-6.997025013E-2,-8.862258196E-1,-6.181956083E-2
4.655446875E0,-6.658431143E-2,-1.041856885E0,-7.525859773E-2
4.660407813E0,-6.658431143E-2,-1.041856885E0,-7.525859773E-2
4.665371875E0,-6.056292355E-2,-1.209879637E0,-8.995427191E-2
4.670335938E0,-6.056292355E-2,-1.209879637E0,-8.995427191E-2
4.675298438E0,-5.527457595E-2,-1.267650127E0,-9.649925679E-2
4.680262500E0,-5.527457595E-2,-1.267650127E0,-9.649925679E-2
4.685225000E0,-4.815363511E-2,-1.282415628E0,-9.873327613E-2
4.690189063E0,-4.815363511E-2,-1.282415628E0,-9.873327613E-2
4.695151563E0,-7.941247895E-3,-2.607522011E-1,-2.019345947E-2
4.700114063E0,-7.941247895E-3,-2.607522011E-1,-2.019345947E-2
4.705078125E0,-7.417649496E-3,-3.075444698E-1,-2.342231758E-2
4.710040625E0,-7.417649496E-3,-3.075444698E-1,-2.342231758E-2
4.715003125E0,-7.260569837E-3,-3.496767282E-1,-2.576106042E-2
4.719965625E0,-7.260569837E-3,-3.496767282E-1,-2.576106042E-2
4.724929688E0,-7.312929723E-3,-3.890687823E-1,-2.759365551E-2
4.729892188E0,-7.312929723E-3,-3.890687823E-1,-2.759365551E-2
4.734856250E0,-7.871435024E-3,-4.055446982E-1,-2.797762863E-2
4.739820313E0,-7.871435024E-3,-4.055446982E-1,-2.797762863E-2
4.744782813E0,-9.005898610E-3,-4.332081676E-1,-2.988003753E-2
4.749746875E0,-9.005898610E-3,-4.332081676E-1,-2.988003753E-2
4.754709375E0,-1.087340154E-2,-4.453382194E-1,-2.946115844E-2
4.759671875E0,-1.087340154E-2,-4.453382194E-1,-2.946115844E-2
4.764635938E0,-1.359611470E-2,-4.660203755E-1,-2.822197415E-2
4.769598438E0,-1.359611470E-2,-4.660203755E-1,-2.822197415E-2
4.774562500E0,-1.724385284E-2,-4.954291582E-1,-2.682571113E-2
4.779525000E0,-1.724385284E-2,-4.954291582E-1,-2.682571113E-2
4.784489063E0,-2.078687213E-2,-5.292361975E-1,-2.614503168E-2
4.789451563E0,-2.078687213E-2,-5.292361975E-1,-2.614503168E-2
4.794414063E0,-1.192583442E-1,-2.893179893E0,-1.358738840E-1
4.799378125E0,-1.192583442E-1,-2.893179893E0,-1.358738840E-1
4.804340625E0,-1.162040234E-1,-2.936062574E0,-1.388409436E-1
4.809304688E0,-1.162040234E-1,-2.936062574E0,-1.388409436E-1
4.814267188E0,-2.153736353E-2,-5.648932457E-1,-2.722713538E-2
4.819229688E0,-2.153736353E-2,-5.648932457E-1,-2.722713538E-2
4.824192188E0,-2.202605456E-2,-6.077061892E-1,-3.083996847E-2
4.829156250E0,-2.202605456E-2,-6.077061892E-1,-3.083996847E-2
4.834118750E0,-1.142143458E-1,-3.352463245E0,-1.796641946E-1
4.839082813E0,-1.142143458E-1,-3.352463245E0,-1.796641946E-1
4.844046875E0,-2.029817924E-2,-6.277949214E-1,-3.508111835E-2
4.849007813E0,-2.029817924E-2,-6.277949214E-1,-3.508111835E-2
4.853971875E0,-1.940806210E-2,-6.500478983E-1,-3.687880561E-2
4.858934375E0,-1.940806210E-2,-6.500478983E-1,-3.687880561E-2
4.863898438E0,-9.107127786E-2,-3.451231480E0,-2.045351416E-1
4.868860938E0,-9.107127786E-2,-3.451231480E0,-2.045351416E-1
4.873823438E0,-7.367035002E-2,-3.434371710E0,-2.227563709E-1
4.878787500E0,-7.367035002E-2,-3.434371710E0,-2.227563709E-1
4.883750000E0,-5.815437064E-2,-3.464321375E0,-2.496518940E-1
4.888714063E0,-5.815437064E-2,-3.464321375E0,-2.496518940E-1
4.893676563E0,-4.529129341E-2,-3.471250534E0,-2.724458873E-1
4.898640625E0,-4.529129341E-2,-3.471250534E0,-2.724458873E-1
4.903603125E0,-2.724459022E-2,-3.498111010E0,-2.888170779E-1
4.908567188E0,-2.724459022E-2,-3.498111010E0,-2.888170779E-1
4.913529688E0,-6.038838997E-3,-3.492211819E0,-2.952224314E-1
4.918493750E0,-6.038838997E-3,-3.492211819E0,-2.952224314E-1
4.923456250E0,1.514945831E-2,-3.489174843E0,-2.936516404E-1
4.928418750E0,1.514945831E-2,-3.489174843E0,-2.936516404E-1
4.933382813E0,3.392919898E-2,-3.354470491E0,-2.790432274E-1
4.938346875E0,3.392919898E-2,-3.354470491E0,-2.790432274E-1
4.943309375E0,4.822344705E-2,-3.214093685E0,-2.642777562E-1
4.948271875E0,4.822344705E-2,-3.214093685E0,-2.642777562E-1
4.953235938E0,5.646140128E-2,-3.029472589E0,-2.464579493E-1
4.958198438E0,5.646140128E-2,-3.029472589E0,-2.464579493E-1
4.963162500E0,6.396631896E-2,-2.899044275E0,-2.324778587E-1
4.968125000E0,6.396631896E-2,-2.899044275E0,-2.324778587E-1
4.973087500E0,6.918485463E-2,-2.791741371E0,-2.201558352E-1
4.978051563E0,6.918485463E-2,-2.791741371E0,-2.201558352E-1
4.983014063E0,6.843435764E-2,-2.767027617E0,-2.148151249E-1
4.987976563E0,6.843435764E-2,-2.767027617E0,-2.148151249E-1
4.992940625E0,6.551966071E-2,-2.865446568E0,-2.187770158E-1
4.997903125E0,6.551966071E-2,-2.865446568E0,-2.187770158E-1
5.002867188E0,6.003932655E-2,-2.926480770E0,-2.195624262E-1
5.007831250E0,6.003932655E-2,-2.926480770E0,-2.195624262E-1
5.012793750E0,5.496041849E-2,-2.950915337E0,-2.173632979E-1
5.017757813E0,5.496041849E-2,-2.950915337E0,-2.173632979E-1
5.022720313E0,5.183627829E-2,-2.938610792E0,-2.139948159E-1
5.027682813E0,5.183627829E-2,-2.938610792E0,-2.139948159E-1
5.032646875E0,4.879940674E-2,-2.930320501E0,-2.128428966E-1
5.037607813E0,4.879940674E-2,-2.930320501E0,-2.128428966E-1
5.042573438E0,4.565781355E-2,-2.867890120E0,-2.086192071E-1
5.047535938E0,4.565781355E-2,-2.867890120E0,-2.086192071E-1
5.052528125E0,4.342379048E-2,-2.841500759E0,-2.059488446E-1
5.057462500E0,4.342379048E-2,-2.841500759E0,-2.059488446E-1
5.062425000E0,4.155628756E-2,-2.754112005E0,-1.995958537E-1
5.067387500E0,4.155628756E-2,-2.754112005E0,-1.995958537E-1
5.072350000E0,4.145156965E-2,-2.680092573E0,-1.957910359E-1
5.077315625E0,4.145156965E-2,-2.680092573E0,-1.957910359E-1
5.082276563E0,4.178318381E-2,-2.639426470E0,-1.968207806E-1
5.087240625E0,4.178318381E-2,-2.639426470E0,-1.968207806E-1
5.092203125E0,8.045967668E-3,-4.991292655E-1,-3.841469809E-2
5.097167188E0,8.045967668E-3,-4.991292655E-1,-3.841469809E-2
5.102131250E0,9.302604944E-3,-5.279795527E-1,-4.141666368E-2
5.107093750E0,9.302604944E-3,-5.279795527E-1,-4.141666368E-2
5.112056250E0,1.045452245E-2,-5.470036268E-1,-4.331907257E-2
5.117018750E0,1.045452245E-2,-5.470036268E-1,-4.331907257E-2
5.121982813E0,1.087340154E-2,-5.653121471E-1,-4.480260238E-2
5.126945313E0,1.087340154E-2,-5.653121471E-1,-4.480260238E-2
5.131909375E0,1.090830751E-2,-5.924519897E-1,-4.691445082E-2
5.136871875E0,1.090830751E-2,-5.924519897E-1,-4.691445082E-2
5.141834375E0,1.097812131E-2,-6.226112843E-1,-4.893903062E-2
5.146800000E0,1.097812131E-2,-6.226112843E-1,-4.893903062E-2
5.151762500E0,1.118756086E-2,-6.510950923E-1,-5.049237609E-2
5.156725000E0,1.118756086E-2,-6.510950923E-1,-5.049237609E-2
5.161687500E0,1.162389293E-2,-6.786014438E-1,-5.188863724E-2
5.166651563E0,1.162389293E-2,-6.786014438E-1,-5.188863724E-2
5.171615625E0,1.213003788E-2,-7.124782801E-1,-5.382595211E-2
5.176578125E0,1.213003788E-2,-7.124782801E-1,-5.382595211E-2
5.181540625E0,1.247910410E-2,-7.525510788E-1,-5.530948564E-2
5.186503125E0,1.247910410E-2,-7.525510788E-1,-5.530948564E-2
5.191467188E0,1.228711754E-2,-7.720987797E-1,-5.415756628E-2
5.196431250E0,1.228711754E-2,-7.720987797E-1,-5.415756628E-2
5.201393750E0,1.181587856E-2,-7.937582731E-1,-5.195845291E-2
5.206356250E0,1.181587856E-2,-7.937582731E-1,-5.195845291E-2
5.211320313E0,1.118756086E-2,-8.184546828E-1,-4.941027239E-2
5.216284375E0,1.118756086E-2,-8.184546828E-1,-4.941027239E-2
5.221245313E0,1.071632188E-2,-8.407251239E-1,-4.750786349E-2
5.226209375E0,1.071632188E-2,-8.407251239E-1,-4.750786349E-2
5.231173438E0,1.061160211E-2,-8.528027534E-1,-4.654793069E-2
5.236135938E0,1.061160211E-2,-8.528027534E-1,-4.654793069E-2
5.241098438E0,1.090830751E-2,-8.571835756E-1,-4.672246426E-2
5.246060938E0,1.090830751E-2,-8.571835756E-1,-4.672246426E-2
5.251025000E0,1.104793418E-2,-8.698895574E-1,-4.808381945E-2
5.255987500E0,1.104793418E-2,-8.698895574E-1,-4.808381945E-2
5.260951563E0,1.101302728E-2,-8.799949884E-1,-4.968952388E-2
5.265914063E0,1.101302728E-2,-8.799949884E-1,-4.968952388E-2
5.270878125E0,1.096066739E-2,-8.900306225E-1,-5.105087906E-2
5.275840625E0,1.096066739E-2,-8.900306225E-1,-5.105087906E-2
5.280804688E0,1.090830751E-2,-8.950746655E-1,-5.162683874E-2
5.285767188E0,1.090830751E-2,-8.950746655E-1,-5.162683874E-2
5.290731250E0,1.099557430E-2,-8.940623403E-1,-5.248204991E-2
5.295693750E0,1.099557430E-2,-8.940623403E-1,-5.248204991E-2
5.300656250E0,1.120501384E-2,-8.960520625E-1,-5.391322076E-2
5.305620313E0,1.120501384E-2,-8.960520625E-1,-5.391322076E-2
5.310582813E0,1.148426626E-2,-9.031206369E-1,-5.557128415E-2
5.315546875E0,1.148426626E-2,-9.031206369E-1,-5.557128415E-2
5.320509375E0,1.172861271E-2,-9.099099636E-1,-5.705481395E-2
5.325471875E0,1.172861271E-2,-9.099099636E-1,-5.705481395E-2
5.330435938E0,1.199041214E-2,-9.124755859E-1,-5.743878707E-2
5.335398438E0,1.199041214E-2,-9.124755859E-1,-5.743878707E-2
5.340362500E0,1.274090353E-2,-9.049008489E-1,-5.682792142E-2
5.345325000E0,1.274090353E-2,-9.049008489E-1,-5.682792142E-2
5.350287500E0,1.413716655E-2,-8.960171342E-1,-5.576327071E-2
5.355251563E0,1.413716655E-2,-8.960171342E-1,-5.576327071E-2
5.360214063E0,1.614429615E-2,-8.883900642E-1,-5.455899239E-2
5.365178125E0,1.614429615E-2,-8.883900642E-1,-5.455899239E-2
5.370140625E0,1.841322333E-2,-8.881456852E-1,-5.398303270E-2
5.375104688E0,1.841322333E-2,-8.881456852E-1,-5.398303270E-2
5.380067188E0,2.005383372E-2,-8.876046538E-1,-5.358160660E-2
5.385029688E0,2.005383372E-2,-8.876046538E-1,-5.358160660E-2
5.389993750E0,2.122320421E-2,-8.899433613E-1,-5.345943570E-2
5.394956250E0,2.122320421E-2,-8.899433613E-1,-5.345943570E-2
5.399920313E0,2.171189524E-2,-8.849517703E-1,-5.297074094E-2
5.404882813E0,2.171189524E-2,-8.849517703E-1,-5.297074094E-2
5.409846875E0,2.200860158E-2,-8.829969764E-1,-5.258677155E-2
5.414809375E0,2.200860158E-2,-8.829969764E-1,-5.258677155E-2
5.419771875E0,2.195624262E-2,-8.868541718E-1,-5.274384841E-2
5.424735938E0,2.195624262E-2,-8.868541718E-1,-5.274384841E-2
5.429698438E0,2.223549411E-2,-8.917759657E-1,-5.314527452E-2
5.434662500E0,2.223549411E-2,-8.917759657E-1,-5.314527452E-2
5.439625000E0,1.188394651E-1,-4.602677345E0,-2.739468813E-1
5.444587500E0,1.188394651E-1,-4.602677345E0,-2.739468813E-1
5.449551563E0,1.157676876E-1,-4.219001770E0,-2.506292760E-1
5.454514063E0,1.157676876E-1,-4.219001770E0,-2.506292760E-1
5.459478125E0,1.155931577E-1,-3.873880386E0,-2.323905826E-1
5.464440625E0,1.155931577E-1,-3.873880386E0,-2.323905826E-1
5.469404688E0,1.142143458E-1,-3.539789438E0,-2.182708681E-1
5.474367188E0,1.142143458E-1,-3.539789438E0,-2.182708681E-1
5.479329688E0,1.114218161E-1,-3.223326445E0,-2.092126161E-1
5.484293750E0,1.114218161E-1,-3.223326445E0,-2.092126161E-1
5.489256250E0,1.057669520E-1,-2.944841623E0,-2.065422684E-1
5.494220313E0,1.057669520E-1,-2.944841623E0,-2.065422684E-1
5.499182813E0,9.838420898E-2,-2.687178612E0,-2.023360133E-1
5.504146875E0,9.838420898E-2,-2.687178612E0,-2.023360133E-1
5.509109375E0,9.063494951E-2,-2.474283457E0,-1.941678822E-1
5.514071875E0,9.063494951E-2,-2.474283457E0,-1.941678822E-1
5.519035938E0,8.365362883E-2,-2.289767265E0,-1.840973347E-1
5.523998438E0,8.365362883E-2,-2.289767265E0,-1.840973347E-1
5.528962500E0,7.785914093E-2,-2.110050678E0,-1.707979143E-1
5.533925000E0,7.785914093E-2,-2.110050678E0,-1.707979143E-1
5.538887500E0,7.262314856E-2,-1.954716444E0,-1.561022550E-1
5.543851563E0,7.262314856E-2,-1.954716444E0,-1.561022550E-1
5.548814063E0,6.695082784E-2,-1.817289114E0,-1.430646330E-1
5.553778125E0,6.695082784E-2,-1.817289114E0,-1.430646330E-1
5.558740625E0,6.089453772E-2,-1.716985106E0,-1.326973885E-1
5.563704688E0,6.089453772E-2,-1.716985106E0,-1.326973885E-1
5.568667188E0,5.534439161E-2,-1.593136549E0,-1.222603172E-1
5.573629688E0,5.534439161E-2,-1.593136549E0,-1.222603172E-1
5.578593750E0,5.082398653E-2,-1.495485306E0,-1.134114936E-1
5.583556250E0,5.082398653E-2,-1.495485306E0,-1.134114936E-1
5.588520313E0,4.719370231E-2,-1.403157473E0,-1.051909924E-1
5.593482813E0,4.719370231E-2,-1.403157473E0,-1.051909924E-1
5.598446875E0,4.338888451E-2,-1.344287515E0,-9.946631640E-2
5.603409375E0,4.338888451E-2,-1.344287515E0,-9.946631640E-2
5.608371875E0,7.749261800E-3,-2.498089820E-1,-1.836086437E-2
5.613335938E0,7.749261800E-3,-2.498089820E-1,-1.836086437E-2
5.618298438E0,7.696901914E-3,-2.576280534E-1,-1.916371472E-2
5.623262500E0,7.696901914E-3,-2.576280534E-1,-1.916371472E-2
5.628225000E0,7.452555932E-3,-2.592861056E-1,-2.021091245E-2
5.633189063E0,7.452555932E-3,-2.592861056E-1,-2.021091245E-2
5.638151563E0,7.400196046E-3,-2.616423070E-1,-2.132792398E-2
5.643115625E0,7.400196046E-3,-2.616423070E-1,-2.132792398E-2
5.648078125E0,7.278022822E-3,-2.682571113E-1,-2.197369561E-2
5.653040625E0,7.278022822E-3,-2.682571113E-1,-2.197369561E-2
5.658004688E0,6.457718089E-3,-2.772455513E-1,-2.235766686E-2
5.662967188E0,6.457718089E-3,-2.772455513E-1,-2.235766686E-2
5.667931250E0,4.537856206E-3,-2.863038182E-1,-2.300344035E-2
5.672893750E0,4.537856206E-3,-2.863038182E-1,-2.300344035E-2
5.677857813E0,2.356194425E-3,-2.939483523E-1,-2.373647690E-2
5.682820313E0,2.356194425E-3,-2.939483523E-1,-2.373647690E-2
5.687782813E0,6.632251316E-4,-2.975262702E-1,-2.429498360E-2
5.692746875E0,6.632251316E-4,-2.975262702E-1,-2.429498360E-2
5.697709375E0,1.396263397E-4,-3.005980551E-1,-2.490584925E-2
5.702671875E0,1.396263397E-4,-3.005980551E-1,-2.490584925E-2
5.707635938E0,-3.490658419E-4,-3.042109013E-1,-2.583087236E-2
5.712600000E0,-3.490658419E-4,-3.042109013E-1,-2.583087236E-2
5.717562500E0,-6.108652451E-4,-3.086440265E-1,-2.684316412E-2
5.722525000E0,-6.108652451E-4,-3.086440265E-1,-2.684316412E-2
5.727489063E0,-8.901178953E-4,-3.150668442E-1,-2.773328125E-2
5.732451563E0,-8.901178953E-4,-3.150668442E-1,-2.773328125E-2
5.737415625E0,-1.169370604E-3,-3.143861592E-1,-2.755874954E-2
5.742378125E0,-1.169370604E-3,-3.143861592E-1,-2.755874954E-2
5.747340625E0,-1.640609466E-3,-3.153286278E-1,-2.691297606E-2
5.752304688E0,-1.640609466E-3,-3.153286278E-1,-2.691297606E-2
5.757267188E0,-1.937315450E-3,-3.150144815E-1,-2.609267272E-2
5.762231250E0,-1.937315450E-3,-3.150144815E-1,-2.609267272E-2
5.767193750E0,-2.338741207E-3,-3.136356771E-1,-2.528982051E-2
5.772156250E0,-2.338741207E-3,-3.136356771E-1,-2.528982051E-2
5.777118750E0,-2.932153177E-3,-3.143861592E-1,-2.504547499E-2
5.782082813E0,-2.932153177E-3,-3.143861592E-1,-2.504547499E-2
5.787046875E0,-3.665191354E-3,-3.173532188E-1,-2.380629070E-2
5.792009375E0,-3.665191354E-3,-3.173532188E-1,-2.380629070E-2
5.796973438E0,-4.345869645E-3,-3.240901828E-1,-2.188642882E-2
5.801935938E0,-4.345869645E-3,-3.240901828E-1,-2.188642882E-2
5.806898438E0,-4.834562074E-3,-3.267430961E-1,-1.975712739E-2
5.811860938E0,-4.834562074E-3,-3.267430961E-1,-1.975712739E-2
5.816825000E0,-5.235987715E-3,-3.266383708E-1,-1.843067631E-2
5.821787500E0,-5.235987715E-3,-3.266383708E-1,-1.843067631E-2
5.826751563E0,-5.567600485E-3,-3.292912543E-1,-1.844812930E-2
5.831714063E0,-5.567600485E-3,-3.292912543E-1,-1.844812930E-2
5.836676563E0,-5.759586580E-3,-3.300068676E-1,-1.867502369E-2
5.841640625E0,-5.759586580E-3,-3.300068676E-1,-1.867502369E-2
5.846604688E0,-5.654866807E-3,-3.306875229E-1,-1.912880875E-2
5.851567188E0,-5.654866807E-3,-3.306875229E-1,-1.912880875E-2
5.856529688E0,-5.393067375E-3,-3.340211213E-1,-1.960004680E-2
5.861492188E0,-5.393067375E-3,-3.340211213E-1,-1.960004680E-2
5.866456250E0,-5.183627829E-3,-3.394840062E-1,-2.000147291E-2
5.871420313E0,-5.183627829E-3,-3.394840062E-1,-2.000147291E-2
5.876382813E0,-5.009094719E-3,-3.402344882E-1,-2.052507177E-2
5.881346875E0,-5.009094719E-3,-3.402344882E-1,-2.052507177E-2
5.886309375E0,-4.939281847E-3,-3.433760703E-1,-2.150245570E-2
5.891271875E0,-4.939281847E-3,-3.433760703E-1,-2.150245570E-2
5.896235938E0,-5.061454605E-3,-3.449468613E-1,-2.207841538E-2
5.901198438E0,-5.061454605E-3,-3.449468613E-1,-2.207841538E-2
5.906160938E0,-5.253441166E-3,-3.463082314E-1,-2.195624262E-2
5.911125000E0,-5.253441166E-3,-3.463082314E-1,-2.195624262E-2
5.916089063E0,-5.427973811E-3,-3.472158015E-1,-2.158972248E-2
5.921051563E0,-5.427973811E-3,-3.472158015E-1,-2.158972248E-2
5.926014063E0,-5.445427261E-3,-3.525390625E-1,-2.160717547E-2
5.930978125E0,-5.445427261E-3,-3.525390625E-1,-2.160717547E-2
5.935942188E0,-5.585053470E-3,-3.557853699E-1,-2.171189524E-2
5.940904688E0,-5.585053470E-3,-3.557853699E-1,-2.171189524E-2
5.945867188E0,-5.934119225E-3,-3.586826026E-1,-2.188642882E-2
5.950831250E0,-5.934119225E-3,-3.586826026E-1,-2.188642882E-2
5.955793750E0,-6.265731994E-3,-3.606199324E-1,-2.199114859E-2
5.960757813E0,-6.265731994E-3,-3.606199324E-1,-2.199114859E-2
5.965720313E0,-5.777040031E-3,-3.583509922E-1,-2.199114859E-2
5.970684375E0,-5.777040031E-3,-3.583509922E-1,-2.199114859E-2
5.975646875E0,-4.921828397E-3,-3.567453027E-1,-2.214822732E-2
5.980609375E0,-4.921828397E-3,-3.567453027E-1,-2.214822732E-2
5.985573438E0,-4.241149873E-3,-3.601137698E-1,-2.253220044E-2
5.990534375E0,-4.241149873E-3,-3.601137698E-1,-2.253220044E-2
5.995500000E0,-3.909537569E-3,-3.648959994E-1,-2.293362655E-2
6.000460938E0,-3.909537569E-3,-3.648959994E-1,-2.293362655E-2
6.005426563E0,-3.228859045E-3,-3.657337427E-1,-2.347467840E-2
6.010387500E0,-3.228859045E-3,-3.657337427E-1,-2.347467840E-2
6.015351563E0,-2.111848444E-3,-3.642153144E-1,-2.392846346E-2
6.020315625E0,-2.111848444E-3,-3.642153144E-1,-2.392846346E-2
6.025278125E0,-8.552113432E-4,-3.643549383E-1,-2.446951531E-2
6.030240625E0,-8.552113432E-4,-3.643549383E-1,-2.446951531E-2
6.035203125E0,-1.396263397E-4,-3.633251786E-1,-2.480112948E-2
6.040167188E0,-1.396263397E-4,-3.633251786E-1,-2.480112948E-2
6.045160938E0,5.061454722E-4,-3.580542803E-1,-2.474876866E-2
6.050093750E0,5.061454722E-4,-3.580542803E-1,-2.474876866E-2
6.055056250E0,1.361356815E-3,-3.558726311E-1,-2.509783395E-2
6.060020313E0,1.361356815E-3,-3.558726311E-1,-2.509783395E-2
6.064984375E0,1.989675453E-3,-3.545287251E-1,-2.549926005E-2
6.069946875E0,1.989675453E-3,-3.545287251E-1,-2.549926005E-2
6.074909375E0,2.216568217E-3,-3.574434221E-1,-2.590068616E-2
6.079871875E0,2.216568217E-3,-3.574434221E-1,-2.590068616E-2
6.084835938E0,2.478367416E-3,-3.581241071E-1,-2.647664398E-2
6.089800000E0,2.478367416E-3,-3.581241071E-1,-2.647664398E-2
6.094762500E0,2.530727303E-3,-3.550348878E-1,-2.701769583E-2
6.099726563E0,2.530727303E-3,-3.550348878E-1,-2.701769583E-2
6.104689063E0,2.548180753E-3,-3.508111835E-1,-2.806489356E-2
6.109651563E0,2.548180753E-3,-3.508111835E-1,-2.806489356E-2
6.114615625E0,2.513274085E-3,-3.493625522E-1,-2.949606441E-2
6.119578125E0,2.513274085E-3,-3.493625522E-1,-2.949606441E-2
6.124542188E0,2.705260413E-3,-3.522074521E-1,-3.057816811E-2
6.129504688E0,2.705260413E-3,-3.522074521E-1,-3.057816811E-2
6.134468750E0,2.844886621E-3,-3.569023907E-1,-3.134611249E-2
6.139429688E0,2.844886621E-3,-3.569023907E-1,-3.134611249E-2
6.144393750E0,2.705260413E-3,-3.570594490E-1,-3.146828711E-2
6.149357813E0,2.705260413E-3,-3.570594490E-1,-3.146828711E-2
6.154320313E0,2.286381321E-3,-3.580019474E-1,-3.143338114E-2
6.159284375E0,2.286381321E-3,-3.580019474E-1,-3.143338114E-2
6.164246875E0,1.396263367E-3,-3.607595563E-1,-3.141592816E-2
6.169209375E0,1.396263367E-3,-3.607595563E-1,-3.141592816E-2
6.174173438E0,-1.221730490E-4,-3.611086309E-1,-3.117158078E-2
6.179135938E0,-1.221730490E-4,-3.611086309E-1,-3.117158078E-2
6.184100000E0,-1.431170036E-3,-3.633601069E-1,-3.106686100E-2
6.189062500E0,-1.431170036E-3,-3.633601069E-1,-3.106686100E-2
6.194026563E0,-2.495820867E-3,-3.637964427E-1,-3.094468825E-2
6.198989063E0,-2.495820867E-3,-3.637964427E-1,-3.094468825E-2
6.203953125E0,-3.420845373E-3,-3.647563457E-1,-3.064798191E-2
6.208915625E0,-3.420845373E-3,-3.647563457E-1,-3.064798191E-2
6.213878125E0,-4.258603323E-3,-3.641454875E-1,-2.977531776E-2
6.218842188E0,-4.258603323E-3,-3.641454875E-1,-2.977531776E-2
6.223804688E0,-5.026548170E-3,-3.638662398E-1,-2.874557301E-2
6.228768750E0,-5.026548170E-3,-3.638662398E-1,-2.874557301E-2
6.233729688E0,-5.427973811E-3,-3.606024683E-1,-2.731440216E-2
6.238693750E0,-5.427973811E-3,-3.606024683E-1,-2.731440216E-2
6.243656250E0,-2.918190509E-2,-1.839943528E0,-1.336573064E-1
6.248620313E0,-2.918190509E-2,-1.839943528E0,-1.336573064E-1
6.253582813E0,-2.617993951E-2,-1.668046117E0,-1.170766875E-1
6.258545313E0,-2.617993951E-2,-1.668046117E0,-1.170766875E-1
6.263509375E0,-4.398229532E-3,-2.943148613E-1,-1.973967440E-2
6.268471875E0,-4.398229532E-3,-2.943148613E-1,-1.973967440E-2
6.273435938E0,-4.241149873E-3,-2.938785255E-1,-1.870992966E-2
6.278398438E0,-4.241149873E-3,-2.938785255E-1,-1.870992966E-2
6.283362500E0,-4.171337001E-3,-2.930931449E-1,-1.783726551E-2
6.288326563E0,-4.171337001E-3,-2.930931449E-1,-1.783726551E-2
6.293289063E0,-4.101523664E-3,-2.918365002E-1,-1.747074537E-2
6.298251563E0,-4.101523664E-3,-2.918365002E-1,-1.747074537E-2
6.303214063E0,-4.031710327E-3,-2.919761240E-1,-1.705186628E-2
6.308178125E0,-4.031710327E-3,-2.919761240E-1,-1.705186628E-2
6.313140625E0,-4.066617228E-3,-2.882585824E-1,-1.682497375E-2
6.318104688E0,-4.066617228E-3,-2.882585824E-1,-1.682497375E-2
6.323067188E0,-4.206243437E-3,-2.845933735E-1,-1.685987972E-2
6.328031250E0,-4.206243437E-3,-2.845933735E-1,-1.685987972E-2
6.332993750E0,-2.295107953E-2,-1.455080986E0,-8.820894361E-2
6.337956250E0,-2.295107953E-2,-1.455080986E0,-8.820894361E-2
6.342920313E0,-2.075196430E-2,-1.315105557E0,-7.991862297E-2
6.347882813E0,-2.075196430E-2,-1.315105557E0,-7.991862297E-2
6.352846875E0,-1.619665511E-2,-1.182495475E0,-7.424630970E-2
6.357809375E0,-1.619665511E-2,-1.182495475E0,-7.424630970E-2
6.362773438E0,-1.186823845E-2,-1.070916533E0,-7.365289330E-2
6.367735938E0,-1.186823845E-2,-1.070916533E0,-7.365289330E-2
6.372698438E0,-9.407324716E-3,-9.832661152E-1,-7.644542307E-2
6.377662500E0,-9.407324716E-3,-9.832661152E-1,-7.644542307E-2
6.382626563E0,-7.871435024E-3,-8.857022524E-1,-7.857472450E-2
6.387589063E0,-7.871435024E-3,-8.857022524E-1,-7.857472450E-2
6.392553125E0,-6.527531426E-3,-7.968125939E-1,-7.934267074E-2
6.397515625E0,-6.527531426E-3,-7.968125939E-1,-7.934267074E-2
6.402479688E0,-5.270894151E-3,-7.303330302E-1,-7.578219473E-2
6.407442188E0,-5.270894151E-3,-7.303330302E-1,-7.578219473E-2
6.412404688E0,-4.677482415E-3,-6.672917008E-1,-6.743951887E-2
6.417368750E0,-4.677482415E-3,-6.672917008E-1,-6.743951887E-2
6.422331250E0,-6.649704650E-3,-6.328389049E-1,-5.958554149E-2
6.427295313E0,-6.649704650E-3,-6.328389049E-1,-5.958554149E-2
6.432257813E0,-1.342158206E-2,-6.082996130E-1,-5.314527452E-2
6.437221875E0,-1.342158206E-2,-6.082996130E-1,-5.314527452E-2
6.442182813E0,-2.302089334E-2,-5.810899138E-1,-4.892157763E-2
6.447146875E0,-2.302089334E-2,-5.810899138E-1,-4.892157763E-2
6.452110938E0,-3.075270168E-2,-5.558524728E-1,-4.520402849E-2
6.457073438E0,-3.075270168E-2,-5.558524728E-1,-4.520402849E-2
6.462035938E0,-3.286454827E-2,-5.301612020E-1,-3.766420484E-2
6.466998438E0,-3.286454827E-2,-5.301612020E-1,-3.766420484E-2
6.471962500E0,-2.902482450E-2,-4.915894270E-1,-2.794272080E-2
6.476925000E0,-2.902482450E-2,-4.915894270E-1,-2.794272080E-2
6.481889063E0,-2.164208330E-2,-4.498586059E-1,-2.031563222E-2
6.486851563E0,-2.164208330E-2,-4.498586059E-1,-2.031563222E-2
6.491814063E0,-1.509709843E-2,-4.016002715E-1,-1.713913307E-2
6.496778125E0,-1.509709843E-2,-4.016002715E-1,-1.713913307E-2
6.501740625E0,-1.298524998E-2,-3.563962281E-1,-1.736602560E-2
6.506704688E0,-1.298524998E-2,-3.563962281E-1,-1.736602560E-2
6.511667188E0,-9.023352526E-3,-3.288025856E-1,-1.839577034E-2
6.516631250E0,-9.023352526E-3,-3.288025856E-1,-1.839577034E-2
6.521593750E0,-5.654866807E-3,-3.071430326E-1,-1.893682219E-2
6.526556250E0,-5.654866807E-3,-3.071430326E-1,-1.893682219E-2
6.531520313E0,-4.415682983E-3,-2.849250138E-1,-1.816887781E-2
6.536482813E0,-4.415682983E-3,-2.849250138E-1,-1.816887781E-2
6.541446875E0,-3.735004691E-3,-2.661627233E-1,-1.736602560E-2
6.546409375E0,-3.735004691E-3,-2.661627233E-1,-1.736602560E-2
6.551371875E0,-4.049163777E-3,-2.681523860E-1,-1.991420612E-2
6.556335938E0,-4.049163777E-3,-2.681523860E-1,-1.991420612E-2
6.561298438E0,-6.719517522E-3,-2.590592206E-1,-2.497566119E-2
6.566262500E0,-6.719517522E-3,-2.590592206E-1,-2.497566119E-2
6.571225000E0,-7.574729156E-3,-2.501231432E-1,-3.064798191E-2
6.576189063E0,-7.574729156E-3,-2.501231432E-1,-3.064798191E-2
6.581151563E0,-8.115780540E-3,-2.478716522E-1,-3.614576906E-2
6.586115625E0,-8.115780540E-3,-2.478716522E-1,-3.614576906E-2
6.591078125E0,-1.282817032E-2,-2.490933836E-1,-3.953170776E-2
6.596040625E0,-1.282817032E-2,-2.490933836E-1,-3.953170776E-2
6.601004688E0,-1.818633080E-2,-2.481160015E-1,-3.998549283E-2
6.605967188E0,-1.818633080E-2,-2.481160015E-1,-3.998549283E-2
6.610931250E0,-2.359685116E-2,-2.396337092E-1,-3.520328924E-2
6.615893750E0,-2.359685116E-2,-2.396337092E-1,-3.520328924E-2
6.620857813E0,-3.035127558E-2,-2.317971736E-1,-2.998475730E-2
6.625820313E0,-3.035127558E-2,-2.317971736E-1,-2.998475730E-2
6.630784375E0,-3.605850041E-2,-2.337868512E-1,-2.694788389E-2
6.635746875E0,-3.605850041E-2,-2.337868512E-1,-2.694788389E-2
6.640709375E0,-3.926990926E-2,-2.361954004E-1,-2.466150187E-2
6.645673438E0,-3.926990926E-2,-2.361954004E-1,-2.466150187E-2
6.650635938E0,-8.220500313E-3,-4.752531648E-2,-3.298672382E-3
6.655600000E0,-8.220500313E-3,-4.752531648E-2,-3.298672382E-3
6.660562500E0,-9.791296907E-3,-5.415756628E-2,-1.099557383E-3
6.665525000E0,-9.791296907E-3,-5.415756628E-2,-1.099557383E-3
6.670489063E0,-1.197295822E-2,-6.220353395E-2,1.727875904E-3
6.675451563E0,-1.197295822E-2,-6.220353395E-2,1.727875904E-3
6.680415625E0,-1.401499379E-2,-6.895796210E-2,4.433136433E-3
6.685378125E0,-1.401499379E-2,-6.895796210E-2,4.433136433E-3
6.690342188E0,-1.555088349E-2,-7.307693362E-2,6.352998316E-3
6.695304688E0,-1.555088349E-2,-7.307693362E-2,6.352998316E-3
6.700267188E0,-1.689478755E-2,-7.866198570E-2,7.260569837E-3
6.705231250E0,-1.689478755E-2,-7.866198570E-2,7.260569837E-3
6.710193750E0,-1.802925020E-2,-8.162904531E-2,7.888888009E-3
6.715157813E0,-1.802925020E-2,-8.162904531E-2,7.888888009E-3
6.720120313E0,-1.855284907E-2,-8.262388408E-2,8.028514683E-3
6.725082813E0,-1.855284907E-2,-8.262388408E-2,8.028514683E-3
6.730046875E0,-1.839577034E-2,-8.251916617E-2,7.871435024E-3
6.735009375E0,-1.839577034E-2,-8.251916617E-2,7.871435024E-3
6.739973438E0,-1.783726551E-2,-8.248426020E-2,7.714355364E-3
6.744935938E0,-1.783726551E-2,-8.248426020E-2,7.714355364E-3
6.749900000E0,-1.726130582E-2,-8.096582443E-2,7.557275705E-3
6.754862500E0,-1.726130582E-2,-8.096582443E-2,7.557275705E-3
6.759825000E0,-1.692969352E-2,-7.899360359E-2,7.400196046E-3
6.764789063E0,-1.692969352E-2,-7.899360359E-2,7.400196046E-3
6.769751563E0,-1.659808122E-2,-7.723081857E-2,7.278022822E-3
6.774715625E0,-1.659808122E-2,-7.723081857E-2,7.278022822E-3
6.779678125E0,-1.633628085E-2,-7.527604699E-2,7.138396613E-3
6.784642188E0,-1.633628085E-2,-7.527604699E-2,7.138396613E-3
6.789604688E0,-1.603957638E-2,-7.396705449E-2,6.998770405E-3
6.794568750E0,-1.603957638E-2,-7.396705449E-2,6.998770405E-3
6.799531250E0,-1.602212340E-2,-7.208209485E-2,6.998770405E-3
6.804493750E0,-1.602212340E-2,-7.208209485E-2,6.998770405E-3
6.809457813E0,-1.705186628E-2,-7.354817539E-2,6.876597181E-3
6.814420313E0,-1.705186628E-2,-7.354817539E-2,6.876597181E-3
6.819384375E0,-1.953023486E-2,-7.555530220E-2,6.702064537E-3
6.824346875E0,-1.953023486E-2,-7.555530220E-2,6.702064537E-3
6.829309375E0,-2.249729447E-2,-7.911577821E-2,6.195918657E-3
6.834273438E0,-2.249729447E-2,-7.911577821E-2,6.195918657E-3
6.839235938E0,-2.413790300E-2,-8.196066320E-2,6.806783844E-3
6.844200000E0,-2.413790300E-2,-8.196066320E-2,6.806783844E-3
6.849162500E0,-2.481858246E-2,-8.522442728E-2,8.866272867E-3
6.854126563E0,-2.481858246E-2,-8.522442728E-2,8.866272867E-3
6.859089063E0,-2.525491454E-2,-8.922123164E-2,1.106538717E-2
6.864051563E0,-2.525491454E-2,-8.922123164E-2,1.106538717E-2
6.869015625E0,-2.612757869E-2,-9.395107627E-2,1.247910410E-2
6.873978125E0,-2.612757869E-2,-9.395107627E-2,1.247910410E-2
6.878942188E0,-2.654645778E-2,-9.573131055E-2,1.315978263E-2
6.883904688E0,-2.654645778E-2,-9.573131055E-2,1.315978263E-2
6.888867188E0,-2.670353837E-2,-9.510298818E-2,1.321214251E-2
6.893831250E0,-2.670353837E-2,-9.510298818E-2,1.321214251E-2
6.898793750E0,-1.399928629E-1,-4.889365435E-1,6.539748609E-2
6.903757813E0,-1.399928629E-1,-4.889365435E-1,6.539748609E-2
6.908720313E0,-1.338492930E-1,-4.492302835E-1,5.656611919E-2
6.913684375E0,-1.338492930E-1,-4.492302835E-1,5.656611919E-2
6.918646875E0,-1.322610527E-1,-4.129798114E-1,4.865977913E-2
6.923609375E0,-1.322610527E-1,-4.129798114E-1,4.865977913E-2
6.928573438E0,-1.312662065E-1,-3.831172287E-1,4.211479425E-2
6.933535938E0,-1.312662065E-1,-3.831172287E-1,4.211479425E-2
6.938500000E0,-1.294510663E-1,-3.434807956E-1,3.785619140E-2
6.943462500E0,-1.294510663E-1,-3.434807956E-1,3.785619140E-2
6.948426563E0,-1.265712827E-1,-3.041759729E-1,3.481931984E-2
6.953389063E0,-1.265712827E-1,-3.041759729E-1,3.481931984E-2
6.958353125E0,-1.212131158E-1,-2.754478753E-1,3.272492439E-2
6.963315625E0,-1.212131158E-1,-2.754478753E-1,3.272492439E-2
6.968278125E0,-1.137431040E-1,-2.466499358E-1,3.459242731E-2
6.973240625E0,-1.137431040E-1,-2.466499358E-1,3.459242731E-2
6.978204688E0,-1.059065759E-1,-2.264041156E-1,4.194026068E-2
6.983167188E0,-1.059065759E-1,-2.264041156E-1,4.194026068E-2
6.988131250E0,-9.810495377E-2,-2.098583877E-1,5.516985804E-2
6.993093750E0,-9.810495377E-2,-2.098583877E-1,5.516985804E-2
6.998056250E0,-9.075712413E-2,-1.976236254E-1,7.073819637E-2
7.003020313E0,-9.075712413E-2,-1.976236254E-1,7.073819637E-2
7.007984375E0,-8.618436009E-2,-1.880243123E-1,8.538150787E-2
7.012946875E0,-8.618436009E-2,-1.880243123E-1,8.538150787E-2
7.017909375E0,-8.330456167E-2,-1.742711216E-1,9.461429715E-2
7.022871875E0,-8.330456167E-2,-1.742711216E-1,9.461429715E-2
7.027835938E0,-8.148942143E-2,-1.595056355E-1,9.609782696E-2
7.032798438E0,-8.148942143E-2,-1.595056355E-1,9.609782696E-2
7.037792188E0,-8.274605870E-2,-1.499237865E-1,9.124581516E-2
7.042726563E0,-8.274605870E-2,-1.499237865E-1,9.124581516E-2
7.047689063E0,-8.651597053E-2,-1.435882300E-1,8.587019891E-2
7.052653125E0,-8.651597053E-2,-1.435882300E-1,8.587019891E-2
7.057615625E0,-9.182177484E-2,-1.360833198E-1,8.065166324E-2
7.062579688E0,-9.182177484E-2,-1.360833198E-1,8.065166324E-2
7.067542188E0,-9.485864639E-2,-1.299397647E-1,7.543312758E-2
7.072504688E0,-9.485864639E-2,-1.299397647E-1,7.543312758E-2
7.077468750E0,-9.548696131E-2,-1.257335246E-1,7.122688740E-2
7.082429688E0,-9.548696131E-2,-1.257335246E-1,7.122688740E-2
7.087393750E0,-9.238027781E-2,-1.159771308E-1,6.777113676E-2
7.092357813E0,-9.238027781E-2,-1.159771308E-1,6.777113676E-2
7.097320313E0,-8.478809148E-2,-1.023112014E-1,6.380923837E-2
7.102282813E0,-8.478809148E-2,-1.023112014E-1,6.380923837E-2
7.107246875E0,-7.398450375E-2,-8.147197217E-2,5.930628628E-2
7.112209375E0,-7.398450375E-2,-8.147197217E-2,5.930628628E-2
7.117173438E0,-6.396631896E-2,-6.684610993E-2,5.267403647E-2
7.122135938E0,-6.396631896E-2,-6.684610993E-2,5.267403647E-2
7.127098438E0,-5.717698485E-2,-5.986479297E-2,4.495968297E-2
7.132062500E0,-5.717698485E-2,-5.986479297E-2,4.495968297E-2
7.137025000E0,-5.122541264E-2,-5.970771238E-2,3.783873841E-2
7.141989063E0,-5.122541264E-2,-5.970771238E-2,3.783873841E-2
7.146951563E0,-4.567526653E-2,-5.420992523E-2,3.206169978E-2
7.151915625E0,-4.567526653E-2,-5.420992523E-2,3.206169978E-2
7.156878125E0,-4.061381146E-2,-4.160865024E-2,2.127556317E-2
7.161840625E0,-4.061381146E-2,-4.160865024E-2,2.127556317E-2
7.166804688E0,-3.584906086E-2,-1.961750165E-2,6.422811653E-3
7.171767188E0,-3.584906086E-2,-1.961750165E-2,6.422811653E-3
7.176731250E0,-3.232349828E-2,-2.321287990E-3,-7.679448463E-3
7.181695313E0,-3.232349828E-2,-2.321287990E-3,-7.679448463E-3
7.186657813E0,-3.141592816E-2,1.024508290E-2,-1.605702937E-2
7.191620313E0,-3.141592816E-2,1.024508290E-2,-1.605702937E-2
7.196582813E0,-6.387905218E-3,1.727875904E-3,-3.106686054E-3
7.201546875E0,-6.387905218E-3,1.727875904E-3,-3.106686054E-3
7.206509375E0,-7.103490178E-3,1.204277156E-3,-2.286381321E-3
7.211473438E0,-7.103490178E-3,1.204277156E-3,-2.286381321E-3
7.216437500E0,-3.921754658E-2,7.086036727E-3,-5.148721393E-3
7.221400000E0,-3.921754658E-2,7.086036727E-3,-5.148721393E-3
7.226362500E0,-3.694862127E-2,1.129228063E-2,-1.448623254E-3
7.231325000E0,-3.694862127E-2,1.129228063E-2,-1.448623254E-3
7.236289063E0,-3.162536770E-2,2.103121765E-2,2.059488557E-3
7.241251563E0,-3.162536770E-2,2.103121765E-2,2.059488557E-3
7.246214063E0,-2.570869960E-2,1.757546514E-2,9.529497474E-3
7.251178125E0,-2.570869960E-2,1.757546514E-2,9.529497474E-3
7.256142188E0,-1.980948634E-2,8.290314116E-3,1.891936921E-2
7.261104688E0,-1.980948634E-2,8.290314116E-3,1.891936921E-2
7.266068750E0,-1.715658605E-2,2.007128671E-3,2.579596639E-2
7.271031250E0,-1.715658605E-2,2.007128671E-3,2.579596639E-2
7.275995313E0,-1.673770696E-2,-6.632251316E-4,2.792526782E-2
7.280957813E0,-1.673770696E-2,-6.632251316E-4,2.792526782E-2
7.285920313E0,-1.436406001E-2,-1.588249579E-3,2.471386269E-2
7.290884375E0,-1.436406001E-2,-1.588249579E-3,2.471386269E-2
7.295846875E0,-1.073377486E-2,2.024581889E-3,1.904154196E-2
7.300810938E0,-1.073377486E-2,2.024581889E-3,1.904154196E-2
7.305773438E0,-7.452555932E-3,5.899212789E-3,1.492256485E-2
7.310737500E0,-7.452555932E-3,5.899212789E-3,1.492256485E-2
7.315700000E0,-3.874630900E-3,3.577925032E-3,1.080358773E-2
7.320664063E0,-3.874630900E-3,3.577925032E-3,1.080358773E-2
7.325625000E0,1.396263367E-3,9.599311277E-3,-1.500983140E-3
7.330589063E0,1.396263367E-3,9.599311277E-3,-1.500983140E-3
7.335553125E0,1.082104165E-2,2.726204321E-2,-2.267182618E-2
7.340514063E0,1.082104165E-2,2.726204321E-2,-2.267182618E-2
7.345478125E0,2.373647690E-2,4.356341809E-2,-4.335397854E-2
7.350442188E0,2.373647690E-2,4.356341809E-2,-4.335397854E-2
7.355404688E0,3.932226822E-2,5.928883329E-2,-5.834635720E-2
7.360367188E0,3.932226822E-2,5.928883329E-2,-5.834635720E-2
7.365331250E0,5.288347602E-2,6.948155910E-2,-6.819001585E-2
7.370293750E0,5.288347602E-2,6.948155910E-2,-6.819001585E-2
7.375256250E0,6.372196972E-2,8.988445252E-2,-7.213445753E-2
7.380220313E0,6.372196972E-2,8.988445252E-2,-7.213445753E-2
7.385182813E0,7.117452472E-2,1.039692611E-1,-7.344345748E-2
7.390146875E0,7.117452472E-2,1.039692611E-1,-7.344345748E-2
7.395109375E0,7.482226193E-2,1.123817489E-1,-7.613126189E-2
7.400073438E0,7.482226193E-2,1.123817489E-1,-7.613126189E-2
7.405035938E0,7.269296050E-2,1.142143458E-1,-7.670722157E-2
7.409998438E0,7.269296050E-2,1.142143458E-1,-7.670722157E-2
7.414962500E0,6.576400250E-2,1.058367640E-1,-7.321656495E-2
7.419925000E0,6.576400250E-2,1.058367640E-1,-7.321656495E-2
7.424889063E0,5.602506921E-2,9.522516280E-2,-6.602580845E-2
7.429851563E0,5.602506921E-2,9.522516280E-2,-6.602580845E-2
7.434815625E0,4.661774263E-2,8.880235255E-2,-5.597271025E-2
7.439778125E0,4.661774263E-2,8.880235255E-2,-5.597271025E-2
7.444740625E0,4.101523757E-2,9.642943740E-2,-4.492477328E-2
7.449706250E0,4.101523757E-2,9.642943740E-2,-4.492477328E-2
7.454668750E0,3.293436393E-2,9.749408811E-2,-3.537782282E-2
7.459631250E0,3.293436393E-2,9.749408811E-2,-3.537782282E-2
7.464593750E0,2.106612362E-2,9.379399568E-2,-3.021164984E-2
7.469557813E0,2.106612362E-2,9.379399568E-2,-3.021164984E-2
7.474520313E0,7.888888009E-3,9.217083454E-2,-2.206096239E-2
7.479482813E0,7.888888009E-3,9.217083454E-2,-2.206096239E-2
7.484446875E0,-4.188790335E-4,7.499679923E-2,-9.564404376E-3
7.489409375E0,-4.188790335E-4,7.499679923E-2,-9.564404376E-3
7.494373438E0,-1.902408898E-3,6.930702180E-2,4.084070213E-3
7.499335938E0,-1.902408898E-3,6.930702180E-2,4.084070213E-3
7.504300000E0,-5.585053586E-4,7.714354992E-2,1.226966456E-2
7.509262500E0,-5.585053586E-4,7.714354992E-2,1.226966456E-2
7.514225000E0,1.378810150E-3,8.988445252E-2,1.626646891E-2
7.519189063E0,1.378810150E-3,8.988445252E-2,1.626646891E-2
7.524151563E0,1.902408898E-3,1.003215238E-1,1.591740362E-2
7.529115625E0,1.902408898E-3,1.003215238E-1,1.591740362E-2
7.534078125E0,3.752457909E-3,1.116312593E-1,1.368338149E-2
7.539042188E0,3.752457909E-3,1.116312593E-1,1.368338149E-2
7.544004688E0,1.151917316E-2,1.318247169E-1,1.197295822E-2
7.548967188E0,1.151917316E-2,1.318247169E-1,1.197295822E-2
7.553931250E0,2.125811018E-2,1.472534239E-1,1.118756086E-2
7.558893750E0,2.125811018E-2,1.472534239E-1,1.118756086E-2
7.563857813E0,2.696533687E-2,1.705361158E-1,1.314232964E-2
7.568820313E0,2.696533687E-2,1.705361158E-1,1.314232964E-2
7.573782813E0,2.668608353E-2,1.784599125E-1,1.005309634E-2
7.578746875E0,2.668608353E-2,1.784599125E-1,1.005309634E-2
7.583709375E0,2.563888580E-2,1.862091720E-1,1.361356815E-3
7.588673438E0,2.563888580E-2,1.862091720E-1,1.361356815E-3
7.593635938E0,2.626720443E-2,1.878672391E-1,-1.007054932E-2
7.598600000E0,2.626720443E-2,1.878672391E-1,-1.007054932E-2
7.603562500E0,2.642428502E-2,1.961400956E-1,-2.141519077E-2
7.608525000E0,2.642428502E-2,1.961400956E-1,-2.141519077E-2
7.613489063E0,4.921828397E-3,4.180063680E-2,-5.410520826E-3
7.618451563E0,4.921828397E-3,4.180063680E-2,-5.410520826E-3
7.623415625E0,5.218534265E-3,4.911356419E-2,-5.811946467E-3
7.628378125E0,5.218534265E-3,4.911356419E-2,-5.811946467E-3
7.633342188E0,5.270894151E-3,5.771803856E-2,-5.166174378E-3
7.638304688E0,5.270894151E-3,5.771803856E-2,-5.166174378E-3
7.643267188E0,5.061454605E-3,6.361725181E-2,-4.293509759E-3
7.648231250E0,5.061454605E-3,6.361725181E-2,-4.293509759E-3
7.653193750E0,4.747295752E-3,6.592108309E-2,-3.490658477E-3
7.658157813E0,4.747295752E-3,6.592108309E-2,-3.490658477E-3
7.663120313E0,3.612831468E-3,7.180284709E-2,-2.565633971E-3
7.668084375E0,3.612831468E-3,7.180284709E-2,-2.565633971E-3
7.673046875E0,7.539822254E-3,3.879692256E-1,-1.022762898E-2
7.678009375E0,7.539822254E-3,3.879692256E-1,-1.022762898E-2
7.682973438E0,-6.981316954E-3,3.692418635E-1,-7.225662936E-3
7.687935938E0,-6.981316954E-3,3.692418635E-1,-7.225662936E-3
7.692900000E0,-2.096140385E-2,3.301290274E-1,-6.527531426E-3
7.697862500E0,-2.096140385E-2,3.301290274E-1,-6.527531426E-3
7.702826563E0,-3.015928902E-2,3.068463206E-1,-4.747295752E-3
7.707790625E0,-3.015928902E-2,3.068463206E-1,-4.747295752E-3
7.712751563E0,-3.036872856E-2,2.989050746E-1,-1.570796361E-3
7.717715625E0,-3.036872856E-2,2.989050746E-1,-1.570796361E-3
7.722678125E0,-2.694788389E-2,2.967583239E-1,1.902408898E-3
7.727642188E0,-2.694788389E-2,2.967583239E-1,1.902408898E-3
7.732604688E0,-2.333505265E-2,2.974564731E-1,5.672320258E-3
7.737568750E0,-2.333505265E-2,2.974564731E-1,5.672320258E-3
7.742531250E0,-2.055997774E-2,2.852740586E-1,8.429939859E-3
7.747495313E0,-2.055997774E-2,2.852740586E-1,8.429939859E-3
7.752457813E0,-1.865756884E-2,2.830575109E-1,1.223475765E-2
7.757420313E0,-1.865756884E-2,2.830575109E-1,1.223475765E-2
7.762384375E0,-1.696459949E-2,2.762856185E-1,1.518436428E-2
7.767346875E0,-1.696459949E-2,2.762856185E-1,1.518436428E-2
7.772310938E0,-1.549852360E-2,2.755002081E-1,1.811651699E-2
7.777273438E0,-1.549852360E-2,2.755002081E-1,1.811651699E-2
7.782235938E0,-1.418952644E-2,2.819753885E-1,2.171189524E-2
7.787200000E0,-1.418952644E-2,2.819753885E-1,2.171189524E-2
7.792162500E0,-1.296779606E-2,2.831098437E-1,2.373647690E-2
7.797126563E0,-1.296779606E-2,2.831098437E-1,2.373647690E-2
7.802089063E0,-1.139700040E-2,2.871066630E-1,2.577851340E-2
7.807053125E0,-1.139700040E-2,2.871066630E-1,2.577851340E-2
7.812015625E0,-9.930923581E-3,2.915572524E-1,2.857103944E-2
7.816979688E0,-9.930923581E-3,2.915572524E-1,2.857103944E-2
7.821942188E0,-8.779006079E-3,2.962521911E-1,3.117158078E-2
7.826904688E0,-8.779006079E-3,2.962521911E-1,3.117158078E-2
7.831868750E0,-8.569566533E-3,3.000569940E-1,3.171263263E-2
7.836831250E0,-8.569566533E-3,3.000569940E-1,3.171263263E-2
7.841793750E0,-8.691739291E-3,3.186622262E-1,3.385938704E-2
7.846757813E0,-8.691739291E-3,3.186622262E-1,3.385938704E-2
7.851720313E0,-8.604473434E-3,3.258704245E-1,3.433062509E-2
7.856684375E0,-8.604473434E-3,3.258704245E-1,3.433062509E-2
7.861646875E0,-1.054178830E-2,3.350508511E-1,3.703588620E-2
7.866610938E0,-1.054178830E-2,3.350508511E-1,3.703588620E-2
7.871573438E0,-1.371828746E-2,3.375117779E-1,3.867649660E-2
7.876537500E0,-1.371828746E-2,3.375117779E-1,3.867649660E-2
7.881500000E0,-1.490511186E-2,3.449119627E-1,4.195771366E-2
7.886462500E0,-1.490511186E-2,3.449119627E-1,4.195771366E-2
7.891426563E0,-1.197295822E-2,3.529230356E-1,4.277801886E-2
7.896389063E0,-1.197295822E-2,3.529230356E-1,4.277801886E-2
7.901353125E0,-7.120943163E-3,3.501304984E-1,4.232423380E-2
7.906315625E0,-7.120943163E-3,3.501304984E-1,4.232423380E-2
7.911278125E0,-4.834562074E-3,3.505668342E-1,4.185299575E-2
7.916242188E0,-4.834562074E-3,3.505668342E-1,4.185299575E-2
7.921204688E0,-4.834562074E-3,3.494323790E-1,4.035201296E-2
7.926168750E0,-4.834562074E-3,3.494323790E-1,4.035201296E-2
7.931131250E0,-2.984513063E-3,3.430619240E-1,3.836233541E-2
7.936095313E0,-2.984513063E-3,3.430619240E-1,3.836233541E-2
7.941057813E0,-1.850049011E-3,3.369183540E-1,3.549999744E-2
7.946021875E0,-1.850049011E-3,3.369183540E-1,3.549999744E-2
7.950984375E0,-1.954768784E-3,3.205646276E-1,2.811725438E-2
7.955946875E0,-1.954768784E-3,3.205646276E-1,2.811725438E-2
7.960910938E0,1.221730490E-4,3.136007488E-1,2.022836544E-2
7.965873438E0,1.221730490E-4,3.136007488E-1,2.022836544E-2
7.970835938E0,4.049163777E-3,3.218387067E-1,1.733111963E-2
7.975800000E0,4.049163777E-3,3.218387067E-1,1.733111963E-2
7.980762500E0,9.093165398E-3,3.283836842E-1,2.029817924E-2
7.985726563E0,9.093165398E-3,3.283836842E-1,2.029817924E-2
7.990689063E0,1.347394194E-2,3.377735615E-1,2.871066518E-2
7.995653125E0,1.347394194E-2,3.377735615E-1,2.871066518E-2
8.000615625E0,1.679006778E-2,3.587524295E-1,3.769911081E-2
8.005579688E0,1.679006778E-2,3.587524295E-1,3.769911081E-2
8.010542188E0,1.850049011E-2,3.866253197E-1,4.272565991E-2
8.015506250E0,1.850049011E-2,3.866253197E-1,4.272565991E-2
8.020468750E0,1.837831736E-2,4.039040804E-1,4.895648360E-2
8.025431250E0,1.837831736E-2,4.039040804E-1,4.895648360E-2
8.030425000E0,1.476548519E-2,4.065744579E-1,6.346017122E-2
8.035357813E0,1.476548519E-2,4.065744579E-1,6.346017122E-2
8.040320313E0,1.007054932E-2,3.862762749E-1,7.794640213E-2
8.045284375E0,1.007054932E-2,3.862762749E-1,7.794640213E-2
8.050246875E0,6.754423957E-3,3.845658600E-1,8.515461534E-2
8.055210938E0,6.754423957E-3,3.845658600E-1,8.515461534E-2
8.060173438E0,5.183627829E-3,3.868347704E-1,8.204792440E-2
8.065137500E0,5.183627829E-3,3.868347704E-1,8.204792440E-2
8.070100000E0,2.024581889E-3,3.947236538E-1,7.536331564E-2
8.075062500E0,2.024581889E-3,3.947236538E-1,7.536331564E-2
8.080026563E0,-1.134464052E-3,4.171511531E-1,7.024950534E-2
8.084989063E0,-1.134464052E-3,4.171511531E-1,7.024950534E-2
8.089953125E0,-3.577925032E-3,4.341855645E-1,6.611306965E-2
8.094915625E0,-3.577925032E-3,4.341855645E-1,6.611306965E-2
8.099879688E0,-4.747295752E-3,4.529827535E-1,6.396631896E-2
8.104842188E0,-4.747295752E-3,4.529827535E-1,6.396631896E-2
8.109804688E0,-5.113814492E-3,4.502076805E-1,6.164502725E-2
8.114768750E0,-5.113814492E-3,4.502076805E-1,6.164502725E-2
8.119731250E0,-5.532693584E-3,4.576078653E-1,6.037093699E-2
8.124695313E0,-5.532693584E-3,4.576078653E-1,6.037093699E-2
8.129657813E0,-5.602506921E-3,4.628962278E-1,5.995205790E-2
8.134621875E0,-5.602506921E-3,4.628962278E-1,5.995205790E-2
8.139584375E0,-5.166174378E-3,4.606622159E-1,5.825908855E-2
8.144548438E0,-5.166174378E-3,4.606622159E-1,5.825908855E-2
8.149510938E0,-4.625122529E-3,4.547804296E-1,5.855579674E-2
8.154473438E0,-4.625122529E-3,4.547804296E-1,5.855579674E-2
8.159437500E0,-4.258603323E-3,4.391422868E-1,6.110397726E-2
8.164400000E0,-4.258603323E-3,4.391422868E-1,6.110397726E-2
8.169364063E0,-4.136430100E-3,4.407480061E-1,6.665412337E-2
8.174326563E0,-4.136430100E-3,4.407480061E-1,6.665412337E-2
8.179290625E0,-4.118977115E-3,4.255287349E-1,6.819001585E-2
8.184253125E0,-4.118977115E-3,4.255287349E-1,6.819001585E-2
8.189215625E0,-4.328416660E-3,4.281641841E-1,6.597344577E-2
8.194179688E0,-4.328416660E-3,4.281641841E-1,6.597344577E-2
8.199142188E0,-5.235987715E-3,4.176921844E-1,6.077236310E-2
8.204106250E0,-5.235987715E-3,4.176921844E-1,6.077236310E-2
8.209068750E0,-6.248278543E-3,4.205021858E-1,5.893976986E-2
8.214032813E0,-6.248278543E-3,4.205021858E-1,5.893976986E-2
8.218995313E0,-6.824237294E-3,4.386361539E-1,5.871287733E-2
8.223957813E0,-6.824237294E-3,4.386361539E-1,5.871287733E-2
8.228921875E0,-6.143558770E-3,4.519180954E-1,5.907939374E-2
8.233884375E0,-6.143558770E-3,4.519180954E-1,5.907939374E-2
8.238846875E0,-3.735004691E-3,4.690572321E-1,6.202900037E-2
8.243810938E0,-3.735004691E-3,4.690572321E-1,6.202900037E-2
8.248773438E0,-1.413716702E-3,4.723210037E-1,6.571164727E-2
8.253737500E0,-1.413716702E-3,4.723210037E-1,6.571164727E-2
8.258700000E0,-4.537856148E-4,4.813094437E-1,7.244861871E-2
8.263664063E0,-4.537856148E-4,4.813094437E-1,7.244861871E-2
8.268626563E0,1.431170036E-3,4.980122447E-1,8.222246170E-2
8.273590625E0,1.431170036E-3,4.980122447E-1,8.222246170E-2
8.278553125E0,7.208209950E-3,5.101248026E-1,9.157742560E-2
8.283515625E0,7.208209950E-3,5.101248026E-1,9.157742560E-2
8.288478125E0,1.350884791E-2,5.251172185E-1,9.936159104E-2
8.293442188E0,1.350884791E-2,5.251172185E-1,9.936159104E-2
8.298406250E0,1.630137488E-2,5.302309990E-1,1.017701477E-1
8.303368750E0,1.630137488E-2,5.302309990E-1,1.017701477E-1
8.308331250E0,1.441641990E-2,5.649456382E-1,1.015781611E-1
8.313295313E0,1.441641990E-2,5.649456382E-1,1.015781611E-1
8.318278125E0,1.052433532E-2,5.704259276E-1,9.766862541E-2
8.323221875E0,1.052433532E-2,5.704259276E-1,9.766862541E-2
8.328184375E0,8.429939859E-3,5.758364797E-1,9.351474047E-2
8.333146875E0,8.429939859E-3,5.758364797E-1,9.351474047E-2
8.338110938E0,7.243116386E-3,5.731835961E-1,8.827875555E-2
8.343073438E0,7.243116386E-3,5.731835961E-1,8.827875555E-2
8.348037500E0,5.480333697E-3,5.725727081E-1,8.415977657E-2
8.353000000E0,5.480333697E-3,5.725727081E-1,8.415977657E-2
8.357964063E0,5.550147034E-3,6.075142026E-1,8.452629298E-2
8.362926563E0,5.550147034E-3,6.075142026E-1,8.452629298E-2
8.367889063E0,6.213372108E-3,6.101496220E-1,8.213519305E-2
8.372853125E0,6.213372108E-3,6.101496220E-1,8.213519305E-2
8.377815625E0,6.108652335E-3,6.094515324E-1,7.986626774E-2
8.382778125E0,6.108652335E-3,6.094515324E-1,7.986626774E-2
8.387742188E0,5.550147034E-3,6.204994321E-1,7.979645580E-2
8.392704688E0,5.550147034E-3,6.204994321E-1,7.979645580E-2
8.397668750E0,5.323254038E-3,6.082646847E-1,7.976154983E-2
8.402631250E0,5.323254038E-3,6.082646847E-1,7.976154983E-2
8.407595313E0,5.218534265E-3,5.904623270E-1,8.094836771E-2
8.412557813E0,5.218534265E-3,5.904623270E-1,8.094836771E-2
8.417520313E0,5.131267942E-3,5.657135844E-1,8.335692436E-2
8.422484375E0,5.131267942E-3,5.657135844E-1,8.335692436E-2
8.427446875E0,1.099557383E-3,1.114218161E-1,1.696459949E-2
8.432409375E0,1.099557383E-3,1.114218161E-1,1.696459949E-2
8.437373438E0,1.466076588E-3,1.227141023E-1,1.836086437E-2
8.442335938E0,1.466076588E-3,1.227141023E-1,1.836086437E-2
8.447300000E0,1.015781611E-2,6.980444193E-1,9.766862541E-2
8.452262500E0,1.015781611E-2,6.980444193E-1,9.766862541E-2
8.457226563E0,1.167625282E-2,6.956533194E-1,9.026842564E-2
8.462189063E0,1.167625282E-2,6.956533194E-1,9.026842564E-2
8.467153125E0,1.375319436E-2,7.030360699E-1,8.646360785E-2
8.472115625E0,1.375319436E-2,7.030360699E-1,8.646360785E-2
8.477078125E0,1.816887781E-2,7.148170471E-1,8.384561539E-2
8.482042188E0,1.816887781E-2,7.148170471E-1,8.384561539E-2
8.487004688E0,2.352703735E-2,7.152533531E-1,7.618362457E-2
8.491968750E0,2.352703735E-2,7.152533531E-1,7.618362457E-2
8.496932813E0,2.919935808E-2,7.470009327E-1,6.948155910E-2
8.501893750E0,2.919935808E-2,7.470009327E-1,6.948155910E-2
8.506857813E0,3.356268257E-2,7.412936687E-1,6.258750707E-2
8.511820313E0,3.356268257E-2,7.412936687E-1,6.258750707E-2
8.516784375E0,3.436553106E-2,7.505439520E-1,6.258750707E-2
8.521746875E0,3.436553106E-2,7.505439520E-1,6.258750707E-2
8.526710938E0,3.036872856E-2,7.646461725E-1,6.625270098E-2
8.531673438E0,3.036872856E-2,7.646461725E-1,6.625270098E-2
8.536635938E0,2.481858246E-2,7.715576887E-1,6.965608895E-2
8.541600000E0,2.481858246E-2,7.715576887E-1,6.965608895E-2
8.546562500E0,2.071705833E-2,7.835131884E-1,7.195992768E-2
8.551526563E0,2.071705833E-2,7.835131884E-1,7.195992768E-2
8.556489063E0,1.778490469E-2,7.838622928E-1,7.213445753E-2
8.561453125E0,1.778490469E-2,7.838622928E-1,7.213445753E-2
8.566415625E0,1.780235791E-3,1.469218135E-1,1.354375482E-2
8.571379688E0,1.780235791E-3,1.469218135E-1,1.354375482E-2
8.576342188E0,-7.330382941E-4,1.556135565E-1,1.441641990E-2
8.581304688E0,-7.330382941E-4,1.556135565E-1,1.441641990E-2
8.586268750E0,-3.647738136E-3,1.618967354E-1,1.497492474E-2
8.591231250E0,-3.647738136E-3,1.618967354E-1,1.497492474E-2
8.596195313E0,-5.759586580E-3,1.681450158E-1,1.556833647E-2
8.601157813E0,-5.759586580E-3,1.681450158E-1,1.556833647E-2
8.606121875E0,-6.544984877E-3,1.751437932E-1,1.607448235E-2
8.611084375E0,-6.544984877E-3,1.751437932E-1,1.607448235E-2
8.616048438E0,-6.684611086E-3,1.815665960E-1,1.619665511E-2
8.621010938E0,-6.684611086E-3,1.815665960E-1,1.619665511E-2
8.625975000E0,-6.492624991E-3,1.890715212E-1,1.637118869E-2
8.630937500E0,-6.492624991E-3,1.890715212E-1,1.637118869E-2
8.635900000E0,-6.352998316E-3,1.954594254E-1,1.663298719E-2
8.640864063E0,-6.352998316E-3,1.954594254E-1,1.663298719E-2
8.645826563E0,-6.544984877E-3,1.999274641E-1,1.692969352E-2
8.650790625E0,-6.544984877E-3,1.999274641E-1,1.692969352E-2
8.655751563E0,-6.911503617E-3,2.060884833E-1,1.768018492E-2
8.660715625E0,-6.911503617E-3,2.060884833E-1,1.768018492E-2
8.665678125E0,-7.365289610E-3,2.137504667E-1,1.874483563E-2
8.670642188E0,-7.365289610E-3,2.137504667E-1,1.874483563E-2
8.675606250E0,-8.063420653E-3,2.169618756E-1,1.930334233E-2
8.680568750E0,-8.063420653E-3,2.169618756E-1,1.930334233E-2
8.685532813E0,-8.534659632E-3,2.236639410E-1,2.003637888E-2
8.690495313E0,-8.534659632E-3,2.236639410E-1,2.003637888E-2
8.695459375E0,-8.080874570E-3,2.321811467E-1,2.117084339E-2
8.700420313E0,-8.080874570E-3,2.321811467E-1,2.117084339E-2
8.705384375E0,-7.086036727E-3,2.402096689E-1,2.206096239E-2
8.710348438E0,-7.086036727E-3,2.402096689E-1,2.206096239E-2
8.715310938E0,-6.108652335E-3,2.509434521E-1,2.282890677E-2
8.720273438E0,-6.108652335E-3,2.509434521E-1,2.282890677E-2
8.725237500E0,-5.724680144E-3,2.601762414E-1,2.317797206E-2
8.730200000E0,-5.724680144E-3,2.601762414E-1,2.317797206E-2
8.735162500E0,-5.044001620E-3,2.712939680E-1,2.364921197E-2
8.740128125E0,-5.044001620E-3,2.712939680E-1,2.364921197E-2
8.745090625E0,-3.124139272E-3,2.792526782E-1,2.420771681E-2
8.750053125E0,-3.124139272E-3,2.792526782E-1,2.420771681E-2
8.755017188E0,-9.250245057E-4,2.887647152E-1,2.450442314E-2
8.759978125E0,-9.250245057E-4,2.887647152E-1,2.450442314E-2
8.764943750E0,7.155850180E-4,2.988876402E-1,2.429498360E-2
8.769906250E0,7.155850180E-4,2.988876402E-1,2.429498360E-2
8.774870313E0,2.199114766E-3,3.059736788E-1,2.385865152E-2
8.779832813E0,2.199114766E-3,3.059736788E-1,2.385865152E-2
8.784795313E0,1.769763790E-2,1.615529060E0,1.225046590E-1
8.789759375E0,1.769763790E-2,1.615529060E0,1.225046590E-1
8.794720313E0,2.197369561E-2,1.519047260E0,1.142143458E-1
8.799684375E0,2.197369561E-2,1.519047260E0,1.142143458E-1
8.804646875E0,2.553416602E-2,1.411849141E0,1.043357849E-1
8.809612500E0,2.553416602E-2,1.411849141E0,1.043357849E-1
8.814573438E0,2.602285892E-2,1.324251056E0,9.564404190E-2
8.819537500E0,2.602285892E-2,1.324251056E0,9.564404190E-2
8.824500000E0,2.220058814E-2,1.250947237E0,8.904670179E-2
8.829464063E0,2.220058814E-2,1.250947237E0,8.904670179E-2
8.834426563E0,1.687733456E-2,1.174222589E0,8.061675727E-2
8.839389063E0,1.687733456E-2,1.174222589E0,8.061675727E-2
8.844353125E0,1.274090353E-2,1.103135347E0,7.014477998E-2
8.849315625E0,1.274090353E-2,1.103135347E0,7.014477998E-2
8.854279688E0,1.034980267E-2,1.033549070E0,6.215117499E-2
8.859242188E0,1.034980267E-2,1.033549070E0,6.215117499E-2
8.864206250E0,8.028514683E-3,9.806132317E-1,5.895722285E-2
8.869168750E0,8.028514683E-3,9.806132317E-1,5.895722285E-2
8.874131250E0,3.036872949E-3,9.331752062E-1,5.967280641E-2
8.879095313E0,3.036872949E-3,9.331752062E-1,5.967280641E-2
8.884057813E0,-5.672320258E-3,9.219527245E-1,6.461209059E-2
8.889021875E0,-5.672320258E-3,9.219527245E-1,6.461209059E-2
8.893984375E0,-1.537635084E-2,8.953713775E-1,6.702063978E-2
8.898948438E0,-1.537635084E-2,8.953713775E-1,6.702063978E-2
8.903910938E0,-2.258456126E-2,8.682838678E-1,6.695082784E-2
8.908873438E0,-2.258456126E-2,8.682838678E-1,6.695082784E-2
8.913837500E0,-2.998475730E-2,8.550891280E-1,7.010987401E-2
8.918801563E0,-2.998475730E-2,8.550891280E-1,7.010987401E-2
8.923764063E0,-3.508111835E-2,8.433256149E-1,7.658504695E-2
8.928728125E0,-3.508111835E-2,8.433256149E-1,7.658504695E-2
8.933690625E0,-3.764675185E-2,8.156447411E-1,8.230973035E-2
8.938654688E0,-3.764675185E-2,8.156447411E-1,8.230973035E-2
8.943617188E0,-3.923500329E-2,7.745072842E-1,8.529423922E-2
8.948579688E0,-3.923500329E-2,7.745072842E-1,8.529423922E-2
8.953543750E0,-3.829252347E-2,7.464075089E-1,8.801695704E-2
8.958506250E0,-3.829252347E-2,7.464075089E-1,8.801695704E-2
8.963470313E0,-3.574434295E-2,7.346614599E-1,8.970992267E-2
8.968431250E0,-3.574434295E-2,7.346614599E-1,8.970992267E-2
8.973395313E0,-3.447025269E-2,7.204021215E-1,8.848819137E-2
8.978357813E0,-3.447025269E-2,7.204021215E-1,8.848819137E-2
8.983321875E0,-3.413863853E-2,7.110645771E-1,8.436921239E-2
8.988284375E0,-3.413863853E-2,7.110645771E-1,8.436921239E-2
8.993248438E0,-3.181735054E-2,6.987076402E-1,7.977899909E-2
8.998210938E0,-3.181735054E-2,6.987076402E-1,7.977899909E-2
9.003175000E0,-2.893755957E-2,6.982189417E-1,7.688175142E-2
9.008137500E0,-2.893755957E-2,6.982189417E-1,7.688175142E-2
9.013101563E0,-2.523746155E-2,7.022157907E-1,7.623597980E-2
9.018064063E0,-2.523746155E-2,7.022157907E-1,7.623597980E-2
9.023056250E0,-2.272418700E-2,6.773797274E-1,7.185520232E-2
9.027990625E0,-2.272418700E-2,6.773797274E-1,7.185520232E-2
9.032954688E0,-2.017600648E-2,6.588966846E-1,6.773623079E-2
9.037915625E0,-2.017600648E-2,6.588966846E-1,6.773623079E-2
9.042879688E0,-1.761037298E-2,6.535734534E-1,6.452482194E-2
9.047842188E0,-1.761037298E-2,6.535734534E-1,6.452482194E-2
9.052806250E0,-1.523672417E-2,6.296275258E-1,5.880014226E-2
9.057768750E0,-1.523672417E-2,6.296275258E-1,5.880014226E-2
9.062731250E0,-1.356120780E-2,6.224367619E-1,5.239478499E-2
9.067695313E0,-1.356120780E-2,6.224367619E-1,5.239478499E-2
9.072659375E0,-1.185078546E-2,6.023654938E-1,4.349360615E-2
9.077621875E0,-1.185078546E-2,6.023654938E-1,4.349360615E-2
9.082585938E0,-1.066396199E-2,5.787162781E-1,3.258529678E-2
9.087548438E0,-1.066396199E-2,5.787162781E-1,3.258529678E-2
9.092510938E0,-1.017526910E-2,5.670050979E-1,2.715732343E-2
9.097473438E0,-1.017526910E-2,5.670050979E-1,2.715732343E-2
9.102437500E0,-9.826203808E-3,5.579293966E-1,2.624975145E-2
9.107400000E0,-9.826203808E-3,5.579293966E-1,2.624975145E-2
9.112364063E0,-9.005898610E-3,5.384340882E-1,2.473131567E-2
9.117326563E0,-9.005898610E-3,5.384340882E-1,2.473131567E-2
9.122290625E0,-1.082104165E-2,5.470908880E-1,2.977531776E-2
9.127253125E0,-1.082104165E-2,5.470908880E-1,2.977531776E-2
9.132217188E0,-1.736602560E-2,5.394987464E-1,3.548254445E-2
9.137179688E0,-1.736602560E-2,5.394987464E-1,3.548254445E-2
9.142142188E0,-2.570869960E-2,5.382071733E-1,4.194026068E-2
9.147106250E0,-2.570869960E-2,5.382071733E-1,4.194026068E-2
9.152068750E0,-3.063052893E-2,5.340881944E-1,4.433136433E-2
9.157031250E0,-3.063052893E-2,5.340881944E-1,4.433136433E-2
9.161995313E0,-3.214896470E-2,5.331806540E-1,5.359905958E-2
9.166957813E0,-3.214896470E-2,5.331806540E-1,5.359905958E-2
9.171921875E0,-2.970550396E-2,5.329886675E-1,7.227408141E-2
9.176884375E0,-2.970550396E-2,5.329886675E-1,7.227408141E-2
9.181848438E0,-2.417281084E-2,5.343674421E-1,9.117600322E-2
9.186810938E0,-2.417281084E-2,5.343674421E-1,9.117600322E-2
9.191775000E0,-1.864011586E-2,5.342278481E-1,1.014210805E-1
9.196737500E0,-1.864011586E-2,5.342278481E-1,1.014210805E-1
9.201701563E0,-1.502728462E-2,5.103691816E-1,9.724974632E-2
9.206664063E0,-1.502728462E-2,5.103691816E-1,9.724974632E-2
9.211628125E0,-1.389282104E-2,5.031434894E-1,8.805186301E-2
9.216590625E0,-1.389282104E-2,5.031434894E-1,8.805186301E-2
9.221553125E0,-1.066396199E-2,5.020962954E-1,7.623597980E-2
9.226517188E0,-1.066396199E-2,5.020962954E-1,7.623597980E-2
9.231479688E0,-3.787364578E-3,4.880987704E-1,6.658431143E-2
9.236442188E0,-3.787364578E-3,4.880987704E-1,6.658431143E-2
9.241406250E0,6.632251199E-3,4.893030524E-1,6.314601004E-2
9.246368750E0,6.632251199E-3,4.893030524E-1,6.314601004E-2
9.251332813E0,1.823868975E-2,4.926540852E-1,5.811946467E-2
9.256295313E0,1.823868975E-2,4.926540852E-1,5.811946467E-2
9.261259375E0,2.946115844E-2,4.946088493E-1,4.506440088E-2
9.266221875E0,2.946115844E-2,4.946088493E-1,4.506440088E-2
9.271184375E0,4.038691893E-2,4.998622835E-1,2.604031190E-2
9.276148438E0,4.038691893E-2,4.998622835E-1,2.604031190E-2
9.281110938E0,5.321509019E-2,5.181184411E-1,1.012290921E-2
9.286075000E0,5.321509019E-2,5.181184411E-1,1.012290921E-2
9.291037500E0,6.841690838E-2,5.232496858E-1,7.853981806E-4
9.296001563E0,6.841690838E-2,5.232496858E-1,7.853981806E-4
9.300964063E0,8.049458265E-2,5.233020782E-1,-5.934119690E-4
9.305926563E0,8.049458265E-2,5.233020782E-1,-5.934119690E-4
9.310915625E0,8.522442728E-2,5.223596096E-1,2.199114766E-3
9.315853125E0,8.522442728E-2,5.223596096E-1,2.199114766E-3
9.320815625E0,8.501498401E-2,5.150117278E-1,7.190756500E-3
9.325779688E0,8.501498401E-2,5.150117278E-1,7.190756500E-3
9.330742188E0,7.787659019E-2,4.985882044E-1,1.113520097E-2
9.335706250E0,7.787659019E-2,4.985882044E-1,1.113520097E-2
9.340668750E0,6.632251292E-2,4.909960330E-1,1.504473854E-2
9.345632813E0,6.632251292E-2,4.909960330E-1,1.504473854E-2
9.350595313E0,5.436700583E-2,4.820075631E-1,1.738347858E-2
9.355557813E0,5.436700583E-2,4.820075631E-1,1.738347858E-2
9.360521875E0,4.544837400E-2,4.801226258E-1,2.319542505E-2
9.365485938E0,4.544837400E-2,4.801226258E-1,2.319542505E-2
9.370448438E0,3.968878835E-2,4.739441574E-1,3.190461919E-2
9.375410938E0,3.968878835E-2,4.739441574E-1,3.190461919E-2
9.380375000E0,3.466223925E-2,4.752182364E-1,4.248131439E-2
9.385337500E0,3.466223925E-2,4.752182364E-1,4.248131439E-2
9.390301563E0,2.802998759E-2,4.717450440E-1,5.248204991E-2
9.395264063E0,2.802998759E-2,4.717450440E-1,5.248204991E-2
9.400226563E0,2.059488557E-2,4.583583772E-1,6.180210784E-2
9.405190625E0,2.059488557E-2,4.583583772E-1,6.180210784E-2
9.410153125E0,1.308996975E-2,4.549375176E-1,7.120943069E-2
9.415117188E0,1.308996975E-2,4.549375176E-1,7.120943069E-2
9.420079688E0,5.061454605E-3,4.612556100E-1,7.831292599E-2
9.425042188E0,5.061454605E-3,4.612556100E-1,7.831292599E-2
9.430006250E0,1.378810150E-3,4.804542363E-1,8.396779001E-2
9.434968750E0,1.378810150E-3,4.804542363E-1,8.396779001E-2
9.439932813E0,8.552113432E-4,4.842765033E-1,8.297295123E-2
9.444895313E0,8.552113432E-4,4.842765033E-1,8.297295123E-2
9.449859375E0,2.391101094E-3,4.875577390E-1,7.716100663E-2
9.454821875E0,2.391101094E-3,4.875577390E-1,7.716100663E-2
9.459784375E0,8.726646192E-4,9.381144494E-2,1.331686229E-2
9.464748438E0,8.726646192E-4,9.381144494E-2,1.331686229E-2
9.469710938E0,1.134464052E-3,1.017701477E-1,1.305506285E-2
9.474675000E0,1.134464052E-3,1.017701477E-1,1.305506285E-2
9.479637500E0,1.291543595E-3,1.091528907E-1,1.328195538E-2
9.484601563E0,1.291543595E-3,1.091528907E-1,1.328195538E-2
9.489564063E0,2.007128671E-3,1.155582517E-1,1.300270297E-2
9.494526563E0,2.007128671E-3,1.155582517E-1,1.300270297E-2
9.499490625E0,3.333578818E-3,1.216669008E-1,1.129228063E-2
9.504453125E0,3.333578818E-3,1.216669008E-1,1.129228063E-2
9.509415625E0,4.712388851E-3,1.256637126E-1,8.499753661E-3
9.514379688E0,4.712388851E-3,1.256637126E-1,8.499753661E-3
9.519342188E0,5.846852902E-3,1.311265826E-1,6.789330859E-3
9.524306250E0,5.846852902E-3,1.311265826E-1,6.789330859E-3
9.529268750E0,7.225662936E-3,1.347045153E-1,7.295476273E-3
9.534231250E0,7.225662936E-3,1.347045153E-1,7.295476273E-3
9.539195313E0,8.203047328E-3,1.398183256E-1,8.691739291E-3
9.544159375E0,8.203047328E-3,1.398183256E-1,8.691739291E-3
9.549121875E0,9.250245057E-3,1.448972374E-1,9.861109778E-3
9.554085938E0,9.250245057E-3,1.448972374E-1,9.861109778E-3
9.559048438E0,9.529497474E-3,1.502379477E-1,1.059414819E-2
9.564010938E0,9.529497474E-3,1.502379477E-1,1.059414819E-2
9.568975000E0,9.005898610E-3,1.572367102E-1,1.153662615E-2
9.573937500E0,9.005898610E-3,1.572367102E-1,1.153662615E-2
9.578901563E0,8.011061698E-3,1.622807086E-1,1.315978263E-2
9.583864063E0,8.011061698E-3,1.622807086E-1,1.315978263E-2
9.588826563E0,7.068583276E-3,1.660855263E-1,1.502728462E-2
9.593790625E0,7.068583276E-3,1.660855263E-1,1.502728462E-2
9.598753125E0,6.754423957E-3,1.692794859E-1,1.631882787E-2
9.603717188E0,6.754423957E-3,1.692794859E-1,1.631882787E-2
9.608679688E0,4.904375412E-3,1.739918739E-1,1.680752076E-2
9.613642188E0,4.904375412E-3,1.739918739E-1,1.680752076E-2
9.618606250E0,1.274090377E-3,1.750390679E-1,1.677261479E-2
9.623570313E0,1.274090377E-3,1.750390679E-1,1.677261479E-2
9.628532813E0,-2.234021435E-3,1.777792424E-1,1.682497375E-2
9.633496875E0,-2.234021435E-3,1.777792424E-1,1.682497375E-2
9.638459375E0,-1.966986060E-2,9.340478778E-1,8.735372871E-2
9.643421875E0,-1.966986060E-2,9.340478778E-1,8.735372871E-2
9.648385938E0,-2.010619268E-2,8.777958751E-1,8.197811246E-2
9.653348438E0,-2.010619268E-2,8.777958751E-1,8.197811246E-2
9.658312500E0,-1.551597659E-2,8.172852993E-1,7.616616786E-2
9.663275000E0,-1.551597659E-2,8.172852993E-1,7.616616786E-2
9.668239063E0,-9.704031050E-3,7.596719861E-1,7.065092772E-2
9.673201563E0,-9.704031050E-3,7.596719861E-1,7.065092772E-2
9.678164063E0,-6.370451767E-3,7.081499100E-1,6.564183533E-2
9.683128125E0,-6.370451767E-3,7.081499100E-1,6.564183533E-2
9.688090625E0,-5.026548170E-3,6.672393680E-1,6.141813472E-2
9.693054688E0,-5.026548170E-3,6.672393680E-1,6.141813472E-2
9.698017188E0,-4.014257342E-3,6.293482780E-1,5.775294453E-2
9.702981250E0,-4.014257342E-3,6.293482780E-1,5.775294453E-2
9.707943750E0,-3.246312495E-3,5.925741792E-1,5.389576778E-2
9.712906250E0,-3.246312495E-3,5.925741792E-1,5.389576778E-2
9.717868750E0,-3.612831468E-3,5.541594625E-1,4.970697686E-2
9.722831250E0,-3.612831468E-3,5.541594625E-1,4.970697686E-2
9.727795313E0,-6.632251199E-3,5.218709111E-1,4.557054490E-2
9.732759375E0,-6.632251199E-3,5.218709111E-1,4.557054490E-2
9.737721875E0,-1.263618376E-2,4.811174572E-1,4.024729133E-2
9.742685938E0,-1.263618376E-2,4.811174572E-1,4.024729133E-2
9.747648438E0,-2.104867063E-2,4.507836401E-1,3.553490341E-2
9.752612500E0,-2.104867063E-2,4.507836401E-1,3.553490341E-2
9.757575000E0,-2.469640970E-2,4.352327585E-1,3.274237737E-2
9.762539063E0,-2.469640970E-2,4.352327585E-1,3.274237737E-2
9.767500000E0,-2.108357660E-2,4.215842783E-1,3.078760765E-2
9.772464063E0,-2.108357660E-2,4.215842783E-1,3.078760765E-2
9.777428125E0,-1.589994878E-2,4.226838350E-1,2.932153083E-2
9.782389063E0,-1.589994878E-2,4.226838350E-1,2.932153083E-2
9.787353125E0,-1.226966456E-2,4.207116067E-1,2.727949619E-2
9.792317188E0,-1.226966456E-2,4.207116067E-1,2.727949619E-2
9.797279688E0,-1.048942842E-2,4.151265621E-1,2.460914291E-2
9.802243750E0,-1.048942842E-2,4.151265621E-1,2.460914291E-2
9.807206250E0,-1.000073645E-2,4.148473144E-1,2.214822732E-2
9.812170313E0,-1.000073645E-2,4.148473144E-1,2.214822732E-2
9.817132813E0,-1.022762898E-2,4.230678082E-1,2.115339041E-2
9.822096875E0,-1.022762898E-2,4.230678082E-1,2.115339041E-2
9.827059375E0,-9.773843922E-3,4.261919558E-1,1.940806210E-2
9.832021875E0,-9.773843922E-3,4.261919558E-1,1.940806210E-2
9.836984375E0,-8.744099177E-3,4.220206141E-1,1.497492474E-2
9.841948438E0,-8.744099177E-3,4.220206141E-1,1.497492474E-2
9.846910938E0,-8.063420653E-3,4.213922918E-1,8.133234456E-3
