"Time (s)","Linear Acceleration x (m/s^2)","Linear Acceleration y (m/s^2)","Linear Acceleration z (m/s^2)"
0.000000000E0,8.460000157E-2,2.818999887E-1,1.618600011E0
9.926562000E-3,1.070999950E-1,3.735999763E-1,9.503999949E-1
1.985312500E-2,1.225999966E-1,5.048999786E-1,1.265999973E-1
2.977812500E-2,1.789999902E-1,4.481000006E-1,-1.397999972E-1
3.970468700E-2,1.074999943E-1,3.989000022E-1,2.469999902E-2
4.963125000E-2,-8.259999752E-2,4.461999834E-1,-1.052999943E-1
5.955781200E-2,-1.462000012E-1,4.657999873E-1,-1.730999947E-1
6.948437500E-2,-1.995999962E-1,4.059999883E-1,-1.784999967E-1
7.941093700E-2,-3.689999878E-2,4.162999988E-1,-1.806000024E-1
8.933750000E-2,-4.447999895E-1,1.929000020E-1,1.508999914E-1
9.926250000E-2,2.522999942E-1,4.977999926E-1,-3.403999805E-1
1.091890620E-1,-3.440999985E-1,1.694999933E-1,8.679999411E-2
1.191156250E-1,-1.712999940E-1,4.542999864E-1,3.304999769E-1
1.290421870E-1,4.199999850E-3,1.825999916E-1,2.085999995E-1
1.389687500E-1,-1.865999997E-1,6.749999523E-2,-2.829999849E-2
1.488953120E-1,2.507999837E-1,1.415999979E-1,-9.099999815E-2
1.588218750E-1,1.966999918E-1,1.611000001E-1,1.738999933E-1
1.687468750E-1,2.389999926E-1,2.529000044E-1,4.597999752E-1
1.786734370E-1,3.680999875E-1,2.034999877E-1,5.202000141E-1
1.886000000E-1,2.538999915E-1,1.997999996E-1,5.119000077E-1
1.985265620E-1,4.727999866E-1,1.797000021E-1,4.372999966E-1
2.084531250E-1,4.504999816E-1,2.992999852E-1,-1.504999995E-1
2.183796870E-1,2.549999952E-1,3.039000034E-1,-2.969000041E-1
2.283062500E-1,1.231999993E-1,3.631999791E-1,2.620000020E-2
2.382312500E-1,-2.131000012E-1,5.018999577E-1,3.096999824E-1
2.481578120E-1,-2.356999964E-1,3.529999852E-1,2.224999964E-1
2.580843750E-1,-2.821999788E-1,5.202000141E-1,4.230000079E-2
2.680109370E-1,-3.213000000E-1,4.412999749E-1,1.199999941E-3
2.779375000E-1,-3.865000010E-1,4.711000025E-1,-4.160999954E-1
2.878640620E-1,-5.162000060E-1,5.033000112E-1,-9.569999576E-2
2.977890620E-1,-7.525999546E-1,6.065999866E-1,-2.523999810E-1
3.077156250E-1,7.689999789E-2,5.979999900E-1,-1.310000010E-2
3.176421870E-1,2.396999896E-1,5.034999847E-1,5.112000108E-1
3.275687500E-1,3.809999824E-1,3.682000041E-1,5.868999958E-1
3.374953120E-1,4.764999747E-1,3.935999870E-1,3.531000018E-1
3.474218750E-1,2.712999880E-1,4.166999757E-1,1.164999977E-1
3.573468750E-1,1.317999959E-1,5.327999592E-1,4.369999841E-2
3.672734370E-1,1.094999984E-1,4.456000030E-1,7.090000063E-2
3.772000000E-1,1.787000000E-1,1.847999990E-1,9.679999948E-2
3.871265620E-1,3.486000001E-1,-1.004000008E-1,-3.599999938E-3
3.970531250E-1,2.674999833E-1,1.049999986E-2,-2.019999921E-2
4.069796870E-1,7.229999453E-2,1.699999906E-2,3.819999844E-2
4.169062500E-1,-1.172999963E-1,1.752000004E-1,1.909999922E-2
4.268312500E-1,-2.576999962E-1,3.986999989E-1,-1.041999981E-1
4.367578120E-1,-3.809999824E-1,3.854999840E-1,-2.997999787E-1
4.466843750E-1,-1.766999960E-1,3.686999977E-1,-1.601999998E-1
4.566109370E-1,2.171999961E-1,3.346999884E-1,-2.199999988E-3
4.665375000E-1,2.572000027E-1,2.912999988E-1,2.575999796E-1
4.764625000E-1,3.243999779E-1,2.019999921E-1,3.497000039E-1
4.863890620E-1,1.231999993E-1,1.243999973E-1,2.216999978E-1
4.963156250E-1,-2.039999887E-2,1.753999889E-1,-3.189999983E-2
5.062421870E-1,-1.429999918E-1,2.685999870E-1,-6.969999522E-2
5.161687500E-1,-2.428999990E-1,2.655999959E-1,-4.499999806E-3
5.260953120E-1,-1.801999956E-1,2.784999907E-1,8.760000020E-2
5.360203120E-1,-2.314999998E-1,2.797999978E-1,4.600000009E-2
5.459484370E-1,-2.639999986E-1,2.054999918E-1,-1.108999997E-1
5.558750000E-1,-2.533999979E-1,2.795000076E-1,-9.929999709E-2
5.658000000E-1,-1.882999986E-1,3.519999981E-2,2.762999833E-1
5.757265620E-1,8.249999583E-2,2.819999866E-2,3.446999788E-1
5.856531250E-1,-1.244999990E-1,3.371999860E-1,-3.693999946E-1
5.955796870E-1,-3.172999918E-1,3.605999947E-1,-5.331999660E-1
6.055062500E-1,-3.482999802E-1,3.137999773E-1,-5.643000007E-1
6.154328120E-1,-1.831000000E-1,4.246999919E-1,-2.497999966E-1
6.253593750E-1,3.790000081E-2,3.181000054E-1,1.362999976E-1
6.352843750E-1,1.816999912E-1,3.059999943E-1,5.284999609E-1
6.452109370E-1,5.979999900E-2,4.864999950E-1,4.921000004E-1
6.551375000E-1,7.209999859E-2,5.702999830E-1,2.921999991E-1
6.650640620E-1,3.050000072E-1,4.217000008E-1,2.829999849E-2
6.749906250E-1,3.300999999E-1,3.571999967E-1,-3.909999877E-2
6.849171870E-1,3.217000067E-1,3.888999820E-1,1.299999934E-2
6.948437500E-1,1.015999988E-1,4.285999835E-1,1.699999906E-2
7.047687500E-1,-4.930000007E-2,3.260999918E-1,6.870000064E-2
7.146953120E-1,-1.990999877E-1,4.460999966E-1,1.237999946E-1
7.246218750E-1,-2.175000012E-1,4.691999853E-1,1.350999922E-1
7.345484370E-1,-7.310000062E-2,3.412999809E-1,-1.899999916E-3
7.444750000E-1,1.542999893E-1,3.863999844E-1,1.675999910E-1
7.544015620E-1,2.140999883E-1,3.716000021E-1,1.551000029E-1
7.643265620E-1,1.620000005E-1,3.971999884E-1,2.123999894E-1
7.742531250E-1,5.329999700E-2,2.430000007E-1,7.569999993E-2
7.841796870E-1,3.790000081E-2,1.759999990E-1,-1.202999949E-1
7.941062500E-1,8.799999952E-3,8.819999546E-2,-2.222999930E-1
8.040328120E-1,2.430999875E-1,6.279999763E-2,-6.759999692E-2
8.139578120E-1,1.840000004E-1,-3.619999811E-2,1.594000012E-1
8.238859370E-1,-4.039999843E-2,-8.280000091E-2,1.671999991E-1
8.338109370E-1,-2.861000001E-1,4.519999772E-2,-1.689999923E-2
8.437375000E-1,-4.370999932E-1,1.614999920E-1,-1.911000013E-1
8.536625000E-1,-4.990999997E-1,2.928999960E-1,-2.001999915E-1
8.635890620E-1,-4.118999839E-1,4.639999866E-1,-1.519999932E-2
8.735156250E-1,-3.515000045E-1,5.295000076E-1,2.659999952E-2
8.834421870E-1,-3.154999912E-1,5.960999727E-1,-1.194999963E-1
8.933687500E-1,1.402999908E-1,8.269000053E-1,-3.822000027E-1
9.032953120E-1,4.403999746E-1,7.360999584E-1,-8.041999936E-1
9.132203120E-1,1.146999970E-1,4.959999919E-1,8.797999620E-1
9.231468750E-1,3.709000051E-1,6.679999828E-1,1.624899983E0
9.330734370E-1,5.616999865E-1,4.863999784E-1,5.817999840E-1
9.430000000E-1,3.720999956E-1,3.321000040E-1,-3.425000012E-1
9.529281250E-1,2.145999968E-1,3.150999844E-1,-2.194999903E-1
9.628531250E-1,3.029999882E-2,1.979999989E-1,-5.289999768E-2
9.727796870E-1,-3.999999899E-4,1.409000009E-1,3.079999983E-2
9.827046870E-1,-4.669999704E-2,1.488000005E-1,8.799999952E-2
9.926328120E-1,-1.425999999E-1,1.493999958E-1,-6.229999661E-2
1.002557812E0,-2.127999961E-1,2.204999924E-1,-1.541000009E-1
1.012484375E0,-2.556000054E-1,1.323999912E-1,-2.845000029E-1
1.022410937E0,-1.371999979E-1,1.759999990E-1,-2.328999937E-1
1.032337500E0,8.899999782E-3,1.561999917E-1,-3.199999779E-2
1.042262500E0,1.166999936E-1,8.139999956E-2,6.419999897E-2
1.052189062E0,1.150999963E-1,1.189999953E-1,1.252999902E-1
1.062117187E0,-4.160000011E-2,2.741999924E-1,2.296999991E-1
1.072043750E0,-2.286999971E-1,3.950999975E-1,2.550999820E-1
1.081968750E0,-2.619000077E-1,2.935999930E-1,5.849999934E-2
1.091895312E0,-1.072999984E-1,2.709999979E-1,-2.083999962E-1
1.101821875E0,6.509999931E-2,3.334999979E-1,-2.267999947E-1
1.111746875E0,-4.309999943E-2,4.060999751E-1,2.739000022E-1
1.121673437E0,-5.229999870E-2,5.713999867E-1,2.468999922E-1
1.131600000E0,-6.079999730E-2,4.594999850E-1,3.830000013E-2
1.141526562E0,-9.119999409E-2,2.936999798E-1,-1.212999970E-1
1.151453125E0,3.170000017E-2,2.565999925E-1,-1.797000021E-1
1.161379687E0,2.093999982E-1,2.523999810E-1,-1.163999960E-1
1.171306250E0,3.166999817E-1,8.280000091E-2,-6.159999967E-2
1.181231250E0,2.967000008E-1,1.889999956E-2,2.719999850E-2
1.191157812E0,1.061000004E-1,4.629999772E-2,-7.699999958E-3
1.201084375E0,-9.999999311E-4,7.769999653E-2,7.739999890E-2
1.211010937E0,-3.390000015E-2,2.397999913E-1,1.647000015E-1
1.220937500E0,-1.691000015E-1,3.535999954E-1,1.727999896E-1
1.230864062E0,-9.519999474E-2,3.260000050E-1,3.561999798E-1
1.240790625E0,6.759999692E-2,3.533000052E-1,3.519999981E-1
1.250717187E0,3.619999811E-2,6.335999966E-1,2.813999951E-1
1.260642187E0,-3.700000001E-3,6.894999743E-1,3.076999784E-1
1.270568750E0,6.089999899E-2,6.103000045E-1,2.604999840E-1
1.280495312E0,2.339999937E-2,4.755999744E-1,1.799999969E-3
1.290421875E0,6.489999592E-2,3.245999813E-1,-3.233999908E-1
1.300348437E0,2.001999915E-1,3.756999969E-1,-3.744999766E-1
1.310275000E0,1.842999905E-1,2.777999938E-1,-2.621999979E-1
1.320200000E0,6.419999897E-2,2.114999890E-1,-2.779999934E-2
1.330126562E0,-1.829999872E-2,2.303999960E-1,5.799999833E-2
1.340054687E0,-1.123999953E-1,2.398999929E-1,1.102999970E-1
1.349979687E0,-2.630999982E-1,3.808999956E-1,1.563999951E-1
1.359906250E0,-3.190000057E-1,4.168999791E-1,1.926999986E-1
1.369831250E0,-4.440999925E-1,5.009999871E-1,1.715999991E-1
1.379757812E0,-3.501999974E-1,2.017000020E-1,2.574999928E-1
1.389684375E0,-2.799999900E-3,8.922999501E-1,-2.644999921E-1
1.399610937E0,-2.360999882E-1,4.220999777E-1,-3.994999826E-1
1.409537500E0,-2.229999937E-2,3.725999892E-1,-2.106999904E-1
1.419464062E0,1.018999964E-1,2.013999969E-1,-1.591999978E-1
1.429390625E0,7.599999662E-3,1.466999948E-1,5.329999700E-2
1.439317187E0,1.228999943E-1,2.274999917E-1,2.006999999E-1
1.449242187E0,3.309999779E-2,2.803999782E-1,1.768999994E-1
1.459170312E0,-1.209999993E-2,1.926999986E-1,-4.399999976E-3
1.469095312E0,1.083000004E-1,1.614999920E-1,-1.544999927E-1
1.479021875E0,2.099999934E-1,1.562999934E-1,-1.474999934E-1
1.488948437E0,1.252000034E-1,1.232999936E-1,5.150000006E-2
1.498875000E0,1.361999959E-1,2.967999876E-1,1.554999948E-1
1.508800000E0,-1.389999967E-2,2.178999931E-1,8.370000124E-2
1.518726562E0,4.949999973E-2,2.150999904E-1,-1.861999929E-1
1.528653125E0,1.738999933E-1,2.016000003E-1,-2.292999923E-1
1.538579687E0,1.319999993E-1,2.757000029E-1,-5.509999767E-2
1.548506250E0,1.195999980E-1,5.450999737E-1,2.579999901E-2
1.558432812E0,2.039999887E-2,7.881000042E-1,1.656999886E-1
1.568359375E0,-1.661999971E-1,1.076799989E0,2.892999947E-1
1.578285937E0,-1.176999956E-1,1.388599992E0,3.572999835E-1
1.588210937E0,-1.915999949E-1,1.647499919E0,6.531999707E-1
1.598137500E0,-1.667999923E-1,1.997399926E0,6.024999619E-1
1.608064062E0,-8.079999685E-2,2.262899876E0,6.688999534E-1
1.617990625E0,7.159999758E-2,2.355700016E0,4.523999989E-1
1.627917187E0,1.677999943E-1,2.519399881E0,5.604999661E-1
1.637843750E0,1.498999894E-1,2.702299833E0,5.389999747E-1
1.647770312E0,4.699999839E-2,2.686699867E0,4.456000030E-1
1.657695312E0,-6.599999964E-2,2.740599871E0,3.082999885E-1
1.667621875E0,-3.280000016E-2,2.779899836E0,3.766999841E-1
1.677548437E0,-2.869999968E-2,2.852299929E0,3.740999997E-1
1.687475000E0,-8.500000089E-2,2.889299870E0,1.856999993E-1
1.697401562E0,-1.534999907E-1,3.006799936E0,2.630999982E-1
1.707326562E0,-1.773999929E-1,2.746599913E0,2.815999985E-1
1.717254687E0,-1.030000001E-1,2.632599831E0,3.186999857E-1
1.727179687E0,-1.099999994E-2,2.612399817E0,5.406000018E-1
1.737106250E0,4.859999940E-2,2.491999865E0,5.688999891E-1
1.747032812E0,-9.799999744E-2,2.029899836E0,4.810999930E-1
1.756959375E0,-4.759999737E-2,1.763199925E0,3.595999777E-1
1.766885937E0,4.039999843E-2,1.537400007E0,3.166999817E-1
1.776812500E0,3.229999915E-2,1.205600023E0,1.393000036E-1
1.786737500E0,1.009999961E-2,9.028999805E-1,1.608999968E-1
1.796664062E0,-5.920000002E-2,7.416999936E-1,1.040000003E-2
1.806590625E0,-1.641999930E-1,5.867999792E-1,-1.239999980E-1
1.816517187E0,-2.490999997E-1,5.253999829E-1,-1.894999892E-1
1.826443750E0,-2.073999941E-1,4.105999768E-1,-9.529999644E-2
1.836370312E0,-8.359999955E-2,3.488000035E-1,-1.679999977E-1
1.846295312E0,7.389999926E-2,2.126999944E-1,-6.879999489E-2
1.856221875E0,1.189999953E-1,1.173999980E-1,-7.759999484E-2
1.866148437E0,7.580000162E-2,1.144999936E-1,2.510000020E-2
1.876073437E0,1.789999940E-2,9.219999611E-2,8.699999750E-2
1.886000000E0,5.339999869E-2,7.440000027E-2,8.779999614E-2
1.895926562E0,6.650000066E-2,1.439999975E-2,-4.580000043E-2
1.905853125E0,4.129999876E-2,7.539999485E-2,1.049999986E-2
1.915779687E0,7.050000131E-2,1.977999955E-1,1.897999942E-1
1.925706250E0,1.787000000E-1,2.078999877E-1,5.920000002E-2
1.935632812E0,1.419999897E-1,1.679999977E-1,1.999999955E-2
1.945559375E0,4.609999806E-2,2.967999876E-1,-4.160000011E-2
1.955485937E0,-1.107999980E-1,4.950999916E-1,6.719999760E-2
1.965410937E0,-2.039999962E-1,4.540999830E-1,1.119999960E-1
1.975337500E0,-8.240000159E-2,4.882999957E-1,-1.167999953E-1
1.985265625E0,9.039999545E-2,6.006000042E-1,-1.074999943E-1
1.995190625E0,8.669999987E-2,8.439999819E-1,3.700000048E-2
2.005117187E0,-1.023999974E-1,1.155099988E0,1.516999900E-1
2.015042187E0,-2.361999899E-1,1.240999937E0,2.172999978E-1
2.024970312E0,-2.883999944E-1,1.362100005E0,1.952999979E-1
2.034896875E0,-1.577999890E-1,1.405499935E0,1.252999902E-1
2.044821875E0,3.269999847E-2,1.435599923E0,8.249999583E-2
2.054748437E0,1.542999893E-1,1.482699990E0,1.149000004E-1
2.064675000E0,1.771999896E-1,1.401399970E0,1.554999948E-1
2.074601562E0,9.499999881E-2,1.470499992E0,3.118000031E-1
2.084526562E0,1.224999949E-1,1.443699956E0,3.064000010E-1
2.094453125E0,1.730999947E-1,1.446699977E0,2.058999985E-1
2.104379687E0,2.011999935E-1,1.490599990E0,2.340999991E-1
2.114306250E0,1.528999954E-1,1.318400025E0,1.723999977E-1
2.124231250E0,1.085999981E-1,1.230499983E0,1.265999973E-1
2.134159375E0,1.114999950E-1,1.184099913E0,2.317999899E-1
2.144084375E0,4.479999840E-2,1.071099997E0,2.289000005E-1
2.154010937E0,-4.659999907E-2,9.916999936E-1,6.809999794E-2
2.163937500E0,-2.239999920E-2,7.883999944E-1,-1.975999922E-1
2.173864062E0,-1.666999906E-1,6.313999891E-1,-2.771999836E-1
2.183790625E0,-1.847999990E-1,5.487999916E-1,-2.728999853E-1
2.193715625E0,-1.359999925E-1,4.587000012E-1,-8.559999615E-2
2.203642187E0,-1.004000008E-1,2.947999835E-1,2.730000019E-2
2.213568750E0,-4.999999655E-4,2.327999920E-1,-1.789999940E-2
2.223495312E0,-8.769999444E-2,2.134999931E-1,6.059999764E-2
2.233421875E0,-1.193999946E-1,1.361999959E-1,-1.730000041E-2
2.243348437E0,-1.499999966E-2,1.854999959E-1,1.200000010E-2
2.253275000E0,-2.799999900E-3,9.609999508E-2,-2.850000001E-2
2.263201562E0,-2.009999938E-2,-1.999999949E-4,3.489999846E-2
2.273126562E0,-1.391000003E-1,-3.039999865E-2,-5.119999871E-2
2.283053125E0,-2.254000008E-1,5.849999934E-2,-3.269999847E-2
2.292979687E0,-6.250000000E-2,1.217999980E-1,2.098999918E-1
2.302906250E0,3.208999932E-1,-4.539999738E-2,-3.350000083E-2
2.312832812E0,4.298000038E-1,-1.524000019E-1,-3.716999888E-1
2.322759375E0,-9.699999541E-2,-1.890999973E-1,-4.636999965E-1
2.332685937E0,1.789999902E-1,-1.445000023E-1,-9.679999948E-2
2.342610937E0,1.541000009E-1,-5.119999871E-2,3.029999882E-2
2.352539062E0,1.008000001E-1,1.359999925E-2,-1.499999911E-1
2.362465625E0,1.460999995E-1,-5.480000004E-2,5.049999803E-2
2.372390625E0,-6.929999590E-2,4.679999873E-2,1.456999928E-1
2.382317187E0,-2.072999924E-1,2.351999879E-1,3.409999907E-1
2.392243750E0,-2.419999987E-2,2.696000040E-1,4.569000006E-1
2.402168750E0,1.310999990E-1,1.110999957E-1,1.363999993E-1
2.412095312E0,1.766999960E-1,6.449999660E-2,-2.008000016E-1
2.422021875E0,1.283999979E-1,1.123999953E-1,-3.025999963E-1
2.431948437E0,6.999999750E-3,8.829999715E-2,-2.983999848E-1
2.441875000E0,-1.270999908E-1,1.298999935E-1,-1.999000013E-1
2.451801562E0,-1.941999942E-1,1.339000016E-1,-1.500999928E-1
2.461726562E0,-3.048000038E-1,2.195999920E-1,5.240000039E-2
2.471653125E0,-3.046000004E-1,2.978000045E-1,1.181999967E-1
2.481579687E0,-2.451999933E-1,3.969999850E-1,-1.150000002E-2
2.491506250E0,-1.430999935E-1,3.698000014E-1,-2.979999967E-2
2.501432812E0,-1.740000024E-2,3.917999864E-1,-4.360000044E-2
2.511359375E0,5.519999936E-2,4.109999835E-1,-9.690000117E-2
2.521285937E0,4.900000058E-3,4.977999926E-1,-1.598999947E-1
2.531210937E0,-7.319999486E-2,6.341999769E-1,-1.837999970E-1
2.541137500E0,-1.446999907E-1,6.442999840E-1,-4.419999942E-2
2.551064062E0,-5.379999802E-2,7.231000066E-1,4.799999762E-3
2.560992187E0,1.439999938E-1,8.499000072E-1,1.305000037E-1
2.570917187E0,1.982000023E-1,7.799999714E-1,1.829999983E-1
2.580843750E0,2.763999999E-1,8.470999599E-1,2.412000000E-1
2.590770312E0,3.003000021E-1,7.580999732E-1,1.788000017E-1
2.600695312E0,2.462999970E-1,7.899000049E-1,2.442999929E-1
2.610623437E0,8.959999681E-2,6.877999902E-1,3.890999854E-1
2.620550000E0,-3.419999778E-2,7.439999580E-1,3.340999782E-1
2.630475000E0,-9.399999864E-3,6.624999642E-1,2.355999947E-1
2.640401562E0,5.909999833E-2,5.496000051E-1,-1.379999984E-2
2.650328125E0,7.090000063E-2,3.567999899E-1,-1.779999956E-2
2.660253125E0,-9.229999781E-2,4.342999756E-1,8.599999361E-3
2.670179687E0,-9.939999878E-2,6.089000106E-1,3.049999848E-2
2.680106250E0,-1.014999971E-1,4.023999870E-1,1.301999986E-1
2.690032812E0,-8.259999752E-2,3.355000019E-1,8.119999617E-2
2.699959375E0,-4.779999703E-2,2.470999956E-1,-1.840000041E-2
2.709885937E0,-5.299999844E-3,8.659999818E-2,-2.179999948E-1
2.719812500E0,4.339999706E-2,3.469999880E-2,-1.589999944E-1
2.729739062E0,8.469999582E-2,-1.030000020E-2,-2.074999958E-1
2.739664062E0,9.250000119E-2,-1.699999906E-2,-2.619000077E-1
2.749590625E0,-5.289999768E-2,-5.260000005E-2,-3.217000067E-1
2.759517187E0,-2.352999896E-1,6.169999763E-2,-2.373999953E-1
2.769443750E0,-2.529999912E-1,5.009999871E-2,-6.659999490E-2
2.779370312E0,-1.630999893E-1,1.383000016E-1,-3.309999779E-2
2.789295312E0,-1.231999993E-1,1.692000031E-1,-2.719999850E-2
2.799223437E0,-2.879999951E-2,1.413999945E-1,-3.900000080E-2
2.809148437E0,7.039999962E-2,1.906999946E-1,1.695999950E-1
2.819075000E0,-1.399999950E-3,2.893999815E-1,3.125000000E-1
2.829001562E0,1.077999994E-1,3.483999968E-1,1.220999956E-1
2.838928125E0,1.394999921E-1,4.071999788E-1,4.619999975E-2
2.848854687E0,2.589999884E-2,3.789999783E-1,1.030000020E-2
2.858779687E0,1.127999946E-1,5.069000125E-1,5.859999731E-2
2.868706250E0,1.150999963E-1,5.356000066E-1,1.013999954E-1
2.878632812E0,1.788000017E-1,4.878000021E-1,1.413999945E-1
2.888559375E0,2.827000022E-1,3.646999896E-1,3.043999970E-1
2.898485937E0,1.537999958E-1,4.380999804E-1,1.475999951E-1
2.908412500E0,7.209999859E-2,4.341000021E-1,1.799999923E-1
2.918339062E0,7.050000131E-2,4.398999810E-1,8.760000020E-2
2.928264062E0,3.449999914E-2,4.334999919E-1,-3.139999881E-2
2.938190625E0,1.119999960E-2,4.702999890E-1,-5.920000002E-2
2.948117187E0,-1.175999939E-1,4.388999939E-1,-5.429999903E-2
2.958043750E0,-2.439999878E-1,4.339999855E-1,-8.240000159E-2
2.967970312E0,-1.810999960E-1,3.203999996E-1,-1.498000026E-1
2.977896875E0,-2.345999926E-1,2.762999833E-1,-1.679999977E-1
2.987821875E0,-1.283999979E-1,2.337999940E-1,-1.569999903E-1
2.997748437E0,-4.580000043E-2,2.311999947E-1,-1.433999985E-1
3.007675000E0,2.080000006E-2,1.598999947E-1,-2.260999978E-1
3.017601562E0,5.240000039E-2,1.094999984E-1,-1.639000028E-1
3.027528125E0,8.069999516E-2,1.381999999E-1,2.719999850E-2
3.037454687E0,1.149999946E-1,4.939999804E-2,4.219999909E-2
3.047381250E0,-4.349999875E-2,4.919999838E-2,1.420000009E-2
3.057307812E0,-4.539999738E-2,1.277000010E-1,-5.629999936E-2
3.067232812E0,3.700000001E-3,9.999999747E-5,-1.565999985E-1
3.077159375E0,2.139999904E-2,8.819999546E-2,-6.859999895E-2
3.087085937E0,1.139999926E-2,1.177999973E-1,-1.999999949E-4
3.097012500E0,3.309999779E-2,1.668999940E-1,-6.729999930E-2
3.106939062E0,-3.159999847E-2,2.748000026E-1,8.540000021E-2
3.116865625E0,-6.539999694E-2,4.314999878E-1,3.339999914E-1
3.126790625E0,5.999999703E-4,5.699999928E-1,4.166999757E-1
3.136717187E0,1.605999917E-1,4.952999949E-1,5.087000132E-1
3.146643750E0,2.832999825E-1,5.029000044E-1,3.194999993E-1
3.156570312E0,3.041999936E-1,4.542999864E-1,2.021999955E-1
3.166496875E0,1.977999955E-1,4.043000042E-1,1.008999944E-1
3.176423437E0,8.590000123E-2,4.406999946E-1,3.869999945E-2
3.186350000E0,6.499999668E-3,3.443999887E-1,2.300000051E-3
3.196276562E0,-3.240000084E-2,2.856999934E-1,-1.349999942E-2
3.206201562E0,-9.789999574E-2,2.919999957E-1,-6.469999999E-2
3.216128125E0,-1.352999955E-1,3.950999975E-1,-7.629999518E-2
3.226054687E0,-1.668999940E-1,4.785999954E-1,-4.789999872E-2
3.235981250E0,-2.008999884E-1,4.644999802E-1,-3.199999779E-2
3.245907812E0,-2.100999951E-1,5.687999725E-1,1.599999960E-3
3.255834375E0,-1.469999999E-1,4.991999865E-1,5.099999905E-2
3.265759375E0,-7.369999588E-2,4.088999927E-1,-1.171999946E-1
3.275685937E0,-4.439999908E-2,3.375000060E-1,-1.862999946E-1
3.285612500E0,1.089999974E-1,3.238999844E-1,-2.264999896E-1
3.295539062E0,1.008000001E-1,3.312999904E-1,-4.619999975E-2
3.305465625E0,1.401000023E-1,2.405999899E-1,1.439999975E-2
3.315392187E0,1.083999947E-1,2.291999906E-1,-8.229999989E-2
3.325318750E0,2.929999866E-2,2.088999897E-1,-1.035999954E-1
3.335243750E0,-2.939999849E-2,2.188999951E-1,-1.899999916E-3
3.345170312E0,-1.150000002E-2,2.782000005E-1,1.510999948E-1
3.355095312E0,2.569999918E-2,2.397999913E-1,2.087000012E-1
3.365023437E0,1.222999990E-1,2.230999917E-1,2.440999895E-1
3.374948437E0,2.137999982E-1,1.692000031E-1,1.657999903E-1
3.384875000E0,2.196999937E-1,2.048999965E-1,1.366000026E-1
3.394801562E0,1.033999994E-1,2.301999927E-1,1.041999981E-1
3.404728125E0,5.179999769E-2,2.354999930E-1,7.580000162E-2
3.414653125E0,5.229999870E-2,1.697999984E-1,2.699999837E-3
3.424579687E0,7.180000097E-2,1.015999988E-1,-1.024999991E-1
3.434507812E0,1.537999958E-1,1.197999939E-1,-1.812999994E-1
3.444434375E0,4.519999772E-2,1.360999942E-1,-2.447999865E-1
3.454359375E0,-3.790000081E-2,1.445000023E-1,2.410000004E-2
3.464285937E0,-7.339999825E-2,1.530999988E-1,1.119999960E-1
3.474212500E0,-1.691000015E-1,1.916999966E-1,2.270999998E-1
3.484139062E0,-1.511999965E-1,2.787999809E-1,1.235999987E-1
3.494065625E0,-1.376999915E-1,2.885999978E-1,-5.199999735E-2
3.503990625E0,-2.129999995E-1,3.925999999E-1,-1.418000013E-1
3.513917187E0,-1.536999941E-1,4.175999761E-1,-1.656999886E-1
3.523843750E0,-7.660000026E-2,3.746999800E-1,-3.049999848E-2
3.533770312E0,-5.469999835E-2,4.524999857E-1,1.807999909E-1
3.543696875E0,4.829999804E-2,4.834999740E-1,2.254999876E-1
3.553621875E0,1.121999994E-1,4.174000025E-1,1.298999935E-1
3.563548437E0,1.850999892E-1,3.418000042E-1,-1.799999923E-2
3.573475000E0,1.897999942E-1,3.920999765E-1,-1.136000007E-1
3.583401562E0,8.799999952E-2,3.519999981E-1,-1.145999953E-1
3.593328125E0,-9.389999509E-2,4.482999742E-1,2.899999963E-3
3.603254687E0,-1.711999923E-1,4.370999932E-1,8.859999478E-2
3.613179687E0,-1.572999954E-1,4.352999926E-1,1.439999975E-2
3.623106250E0,-1.229999959E-1,4.532999992E-1,-4.419999942E-2
3.633032812E0,-7.289999723E-2,5.216999650E-1,-8.899999782E-3
3.642959375E0,-2.749999985E-2,4.632000029E-1,7.189999521E-2
3.652885937E0,6.069999933E-2,3.348999918E-1,2.899999917E-2
3.662812500E0,1.244999990E-1,3.251000047E-1,2.009999938E-2
3.672739062E0,1.160999984E-1,2.784999907E-1,1.419000030E-1
3.682664062E0,1.375000030E-1,3.113999963E-1,1.750999987E-1
3.692590625E0,1.879999973E-2,3.041999936E-1,1.215000004E-1
3.702518750E0,-1.209999993E-2,2.572000027E-1,-2.199999988E-3
3.712443750E0,-4.010000080E-2,1.895999908E-1,-7.809999585E-2
3.722370312E0,-1.679999940E-2,2.563000023E-1,-1.166999936E-1
3.732296875E0,-6.870000064E-2,3.804999888E-1,-5.249999836E-2
3.742223437E0,-1.027999967E-1,3.984999955E-1,7.530000061E-2
3.752150000E0,2.449999936E-2,3.290999830E-1,2.869999968E-2
3.762075000E0,-4.259999841E-2,3.378999829E-1,-2.499999851E-2
3.772001562E0,-4.160000011E-2,3.477999866E-1,-1.999999949E-4
3.781928125E0,1.109999977E-2,3.574999869E-1,-1.809999906E-2
3.791854687E0,4.120000079E-2,3.765999973E-1,5.169999972E-2
3.801781250E0,4.499999806E-2,2.988999784E-1,1.147999987E-1
3.811707812E0,3.170000017E-2,3.285999894E-1,-2.439999953E-2
3.821632812E0,-6.629999727E-2,3.676999807E-1,-1.249999925E-2
3.831559375E0,-5.680000037E-2,3.282999992E-1,-3.049999848E-2
3.841485937E0,-5.370000005E-2,3.956999779E-1,-4.879999906E-2
3.851412500E0,-7.050000131E-2,2.461999953E-1,-6.870000064E-2
3.861339062E0,6.449999660E-2,2.654999793E-1,2.459999919E-2
3.871265625E0,1.794999987E-1,2.265999913E-1,7.840000093E-2
3.881192187E0,2.082999945E-1,1.201999933E-1,1.241999939E-1
3.891118750E0,1.366999894E-1,1.717000008E-1,1.011999995E-1
3.901043750E0,4.959999770E-2,1.755999923E-1,6.430000067E-2
3.910970312E0,6.899999920E-3,1.975999922E-1,3.099999856E-3
3.920896875E0,-3.590000048E-2,2.569999993E-1,-1.399999950E-2
3.930823437E0,-1.715999991E-1,2.733999789E-1,-1.092999950E-1
3.940750000E0,-1.862999946E-1,3.290999830E-1,-8.309999853E-2
3.950675000E0,-1.264999956E-1,4.443999827E-1,-4.600000102E-3
3.960601562E0,-1.305999905E-1,4.034999907E-1,3.999999899E-4
3.970528125E0,-9.999999311E-4,3.445999920E-1,1.013000011E-1
3.980454687E0,5.359999835E-2,3.651999831E-1,7.169999927E-2
3.990381250E0,-2.709999867E-2,3.967999816E-1,1.368999928E-1
4.000307812E0,-1.960000023E-2,4.368000031E-1,1.579999924E-2
4.010232812E0,-1.919999905E-2,3.874000013E-1,-9.640000015E-2
4.020159375E0,3.390000015E-2,4.046999812E-1,-1.506000012E-1
4.030085937E0,2.180000022E-2,3.642999828E-1,-3.790000081E-2
4.040012500E0,-1.129999943E-2,4.315999746E-1,7.889999449E-2
4.049939062E0,-9.429999441E-2,4.799000025E-1,3.920000046E-2
4.059865625E0,-6.169999763E-2,5.191000104E-1,2.070000023E-2
4.069792187E0,-1.250000000E-1,5.891000032E-1,1.950000040E-2
4.079717187E0,-6.079999730E-2,6.577999592E-1,-3.909999877E-2
4.089643750E0,-9.539999813E-2,6.468999982E-1,-8.489999920E-2
4.099570312E0,4.129999876E-2,6.067000031E-1,-3.849999979E-2
4.109496875E0,1.324999928E-1,5.270000100E-1,-2.419999987E-2
4.119423437E0,2.076999992E-1,2.987000048E-1,-1.492999941E-1
4.129350000E0,1.981000006E-1,2.184999883E-1,-8.519999683E-2
4.139276562E0,1.923999935E-1,1.000999957E-1,-1.048999950E-1
4.149201562E0,3.000000026E-3,1.884000003E-1,1.030000020E-2
4.159128125E0,-1.624999940E-1,1.388999969E-1,3.599999845E-2
4.169054687E0,-1.889999956E-1,1.583999991E-1,6.529999524E-2
4.178981250E0,-2.845999897E-1,1.393000036E-1,1.519999951E-1
4.188907812E0,-2.453999966E-1,1.230999976E-1,2.574999928E-1
4.198834375E0,-9.789999574E-2,1.972000003E-1,3.260999918E-1
4.208760937E0,4.449999705E-2,1.433999985E-1,1.472999901E-1
4.218687500E0,1.367999911E-1,1.450999975E-1,-1.386999935E-1
4.228612500E0,2.221999913E-1,1.521999985E-1,-2.628000081E-1
4.238539062E0,1.903999895E-1,7.989999652E-2,-1.306999922E-1
4.248465625E0,2.055999935E-1,1.261000037E-1,7.379999757E-2
4.258392187E0,2.028999925E-1,9.559999406E-2,8.869999647E-2
4.268318750E0,1.039000005E-1,1.464999914E-1,9.690000117E-2
4.278243750E0,-7.959999889E-2,2.786000073E-1,2.446999997E-1
4.288170312E0,-1.002999991E-1,3.131999969E-1,2.295999974E-1
4.298096875E0,-1.651999950E-1,3.744999766E-1,1.200999990E-1
4.308023437E0,-9.569999576E-2,3.757999837E-1,-3.619999811E-2
4.317950000E0,5.439999700E-2,3.475999832E-1,-7.609999925E-2
4.327876562E0,1.489999983E-2,4.054999948E-1,5.299999844E-3
4.337803125E0,5.229999870E-2,3.759999871E-1,1.433999985E-1
4.347728125E0,-3.359999880E-2,3.847000003E-1,1.339999959E-2
4.357654687E0,-7.889999449E-2,3.470999897E-1,7.679999620E-2
4.367581250E0,-2.070000023E-2,3.484999835E-1,1.689999923E-2
4.377507812E0,-1.919999905E-2,3.867999911E-1,-7.800000161E-2
4.387434375E0,-1.189999953E-1,3.349999785E-1,-5.480000004E-2
4.397360937E0,-1.421999931E-1,3.540999889E-1,-2.429999970E-2
4.407287500E0,-2.405999899E-1,2.933999896E-1,-5.989999697E-2
4.417214062E0,-1.958999932E-1,2.424999923E-1,-1.436000019E-1
4.427139062E0,-5.790000036E-2,2.231999934E-1,-5.399999768E-2
4.437065625E0,2.269999869E-2,1.532000005E-1,-1.140000001E-1
4.446992187E0,2.579999901E-2,1.218999997E-1,-1.096000001E-1
4.456918750E0,3.920000046E-2,1.191999987E-1,-1.002999991E-1
4.466845312E0,3.839999810E-2,1.280999929E-1,6.369999796E-2
4.476771875E0,4.499999806E-2,1.572999954E-1,1.595000029E-1
4.486698437E0,1.495999992E-1,1.472999901E-1,1.030000001E-1
4.496623437E0,2.289999872E-1,1.279999912E-1,1.116999984E-1
4.506550000E0,1.652999967E-1,1.105000004E-1,8.320000023E-2
4.516476562E0,1.369999945E-1,1.717000008E-1,1.275999993E-1
4.526403125E0,1.363999993E-1,1.852999926E-1,2.133999914E-1
4.536329687E0,1.379999984E-2,2.414999902E-1,2.891999781E-1
4.546256250E0,-1.174999997E-1,3.058999777E-1,1.542000026E-1
4.556181250E0,-9.179999679E-2,4.377999902E-1,4.919999838E-2
4.566107812E0,-1.378999949E-1,4.237999916E-1,1.303000003E-1
4.576032812E0,-3.159999847E-2,4.441999793E-1,-2.559999935E-2
4.585960937E0,3.989999741E-2,4.224999845E-1,-2.099999925E-3
4.595887500E0,-5.399999674E-3,4.990999997E-1,-2.139999904E-2
4.605812500E0,3.179999813E-2,5.083000064E-1,-4.900000058E-3
4.615740625E0,6.859999895E-2,5.640000105E-1,3.079999983E-2
4.625667187E0,-7.400000002E-3,6.513999701E-1,3.179999813E-2
4.635592187E0,-6.920000166E-2,6.900999546E-1,6.740000099E-2
4.645518750E0,-1.094999984E-1,6.223999858E-1,9.569999576E-2
4.655443750E0,-2.009999938E-2,5.726999640E-1,6.099999882E-3
4.665371875E0,2.779999934E-2,4.532999992E-1,-5.989999697E-2
4.675298437E0,9.699999355E-3,5.188999772E-1,-1.272999942E-1
4.685225000E0,-3.339999914E-2,4.769999981E-1,-4.239999875E-2
4.695150000E0,4.059999809E-2,4.645999968E-1,4.169999808E-2
4.705076562E0,6.300000101E-2,5.030999780E-1,9.929999709E-2
4.715001562E0,1.074000001E-1,5.036000013E-1,9.259999543E-2
4.724928125E0,7.750000060E-2,5.160999894E-1,1.123999953E-1
4.734856250E0,-1.300000004E-3,4.510999918E-1,1.537999958E-1
4.744782812E0,-2.049999870E-2,4.450999796E-1,1.560000032E-1
4.754707812E0,-3.049999848E-2,3.094999790E-1,2.819999866E-2
4.764634375E0,-4.930000007E-2,2.721000016E-1,1.529999916E-2
4.774560937E0,-5.240000039E-2,2.904999852E-1,-9.910000116E-2
4.784487500E0,-1.169999968E-2,2.079999894E-1,-1.482999921E-1
4.794414062E0,-6.529999524E-2,2.428999990E-1,-7.279999554E-2
4.804340625E0,1.289999951E-2,2.298000008E-1,-7.530000061E-2
4.814265625E0,-5.609999970E-2,2.276999950E-1,4.490000010E-2
4.824192187E0,-1.136999950E-1,2.468999922E-1,4.429999739E-2
4.834118750E0,-1.089999974E-1,2.583999932E-1,7.499999553E-2
4.844043750E0,-1.278999895E-1,3.267000020E-1,-5.739999935E-2
4.853970312E0,-1.381999999E-1,3.666999936E-1,-6.759999692E-2
4.863896875E0,-1.269000024E-1,3.282999992E-1,1.359999925E-2
4.873823437E0,-1.312000006E-1,3.382000029E-1,-3.889999911E-2
4.883750000E0,-8.429999650E-2,3.384000063E-1,2.759999968E-2
4.893676562E0,-1.300000004E-3,3.788000047E-1,3.429999948E-2
4.903603125E0,1.114999950E-1,2.908000052E-1,4.959999770E-2
4.913529687E0,2.373999953E-1,3.071999848E-1,-1.399999950E-2
4.923454687E0,2.449999899E-1,2.339999974E-1,-1.498000026E-1
4.933382812E0,1.777999997E-1,2.208999991E-1,-4.789999872E-2
4.943307812E0,8.429999650E-2,2.682999969E-1,3.289999813E-2
4.953234375E0,-3.009999916E-2,2.468999922E-1,4.299999680E-3
4.963160937E0,-8.100000210E-3,2.468999922E-1,8.229999989E-2
4.973087500E0,3.319999948E-2,3.389999866E-1,2.247999907E-1
4.983012500E0,9.449999779E-2,3.033999801E-1,1.825999916E-1
4.992939062E0,2.809999883E-2,3.463999927E-1,1.657999903E-1
5.002867187E0,-1.112999991E-1,4.004999995E-1,1.233999953E-1
5.012793750E0,-1.515000015E-1,4.226000011E-1,-3.549999744E-2
5.022718750E0,-1.216999963E-1,3.723999858E-1,-6.729999930E-2
5.032643750E0,-3.529999778E-2,3.515000045E-1,-4.609999806E-2
5.042571875E0,1.034999937E-1,3.210999966E-1,3.709999844E-2
5.052498437E0,8.659999818E-2,3.594999909E-1,1.048000008E-1
5.062423437E0,7.229999453E-2,3.000999987E-1,8.999999845E-4
5.072351562E0,-7.440000027E-2,3.876000047E-1,-5.799999833E-2
5.082276562E0,-1.316999942E-1,3.874999881E-1,-1.630000025E-2
5.092203125E0,-4.859999940E-2,5.141000152E-1,9.200000204E-3
5.102129687E0,-6.999999750E-4,5.324999690E-1,5.969999731E-2
5.112054687E0,2.119999938E-2,5.149999857E-1,1.797000021E-1
5.121981250E0,3.329999745E-2,4.195999801E-1,1.213999987E-1
5.131907812E0,4.699999932E-3,3.917999864E-1,5.799999833E-2
5.141835937E0,5.299999937E-2,4.108999968E-1,-8.500000089E-2
5.151760937E0,6.199999899E-2,3.498999774E-1,-1.557999998E-1
5.161687500E0,6.539999694E-2,1.974999905E-1,-1.889999956E-1
5.171614062E0,1.109999977E-2,2.123999894E-1,-1.235999987E-1
5.181539062E0,3.350000083E-2,2.389999926E-1,2.419999987E-2
5.191467187E0,3.579999879E-2,1.799999923E-1,1.159999967E-1
5.201392187E0,8.399999700E-3,2.010999918E-1,1.484999955E-1
5.211320312E0,-1.194999963E-1,3.104999959E-1,3.280000016E-2
5.221245312E0,-1.379999965E-1,3.118000031E-1,-2.799999900E-2
5.231171875E0,-1.136000007E-1,2.426999956E-1,-9.510000050E-2
5.241096875E0,-3.439999744E-2,2.811999917E-1,-1.789999940E-2
5.251023437E0,-1.013000011E-1,3.310999870E-1,1.305000037E-1
5.260950000E0,-6.279999763E-2,2.834999859E-1,1.052000001E-1
5.270876562E0,3.529999778E-2,2.727999985E-1,-7.609999925E-2
5.280803125E0,1.023999974E-1,2.915000021E-1,-1.150999963E-1
5.290729687E0,1.523000002E-1,2.807999849E-1,-3.099999949E-2
5.300656250E0,1.623999923E-1,2.111999989E-1,1.282999963E-1
5.310582812E0,-2.269999869E-2,2.513000071E-1,2.167999893E-1
5.320507812E0,-4.179999977E-2,2.236000001E-1,4.849999771E-2
5.330434375E0,-1.147999987E-1,3.229999840E-1,-7.000000030E-2
5.340360937E0,-4.470000044E-2,2.636999786E-1,-1.392000020E-1
5.350287500E0,4.659999907E-2,2.998999953E-1,-1.534999907E-1
5.360214062E0,2.499999851E-2,3.064999878E-1,-2.339999937E-2
5.370140625E0,2.300000004E-2,2.669999897E-1,1.376999915E-1
5.380065625E0,5.139999837E-2,3.353999853E-1,5.150000006E-2
5.389992187E0,1.459999941E-2,3.457999825E-1,4.690000042E-2
5.399918750E0,-6.039999798E-2,4.162999988E-1,5.139999837E-2
5.409845312E0,-1.459999979E-1,3.991999924E-1,1.088999957E-1
5.419771875E0,-2.169999927E-1,3.601000011E-1,1.929999888E-2
5.429698437E0,-1.728999913E-1,3.815999925E-1,1.840000041E-2
5.439623437E0,-2.066999972E-1,4.520999789E-1,-6.899999827E-2
5.449550000E0,-2.599999867E-2,3.535999954E-1,-1.557999998E-1
5.459476562E0,1.231999993E-1,3.704999983E-1,-7.999999821E-2
5.469403125E0,1.322999895E-1,3.678999841E-1,-2.639999986E-2
5.479329687E0,4.129999876E-2,3.273999989E-1,1.039000005E-1
5.489256250E0,2.620000020E-2,3.651999831E-1,8.959999681E-2
5.499182812E0,5.909999833E-2,3.658999801E-1,1.088999957E-1
5.509107812E0,8.179999888E-2,3.183999956E-1,8.839999884E-2
5.519034375E0,1.263999939E-1,2.700999975E-1,3.999999724E-3
5.528960937E0,7.129999995E-2,2.109999955E-1,8.700000122E-3
5.538887500E0,-5.339999869E-2,2.906000018E-1,7.339999825E-2
5.548814062E0,-6.309999526E-2,2.619999945E-1,6.870000064E-2
5.558740625E0,-1.165999994E-1,2.814999819E-1,-4.399999976E-3
5.568665625E0,-9.229999781E-2,2.723999918E-1,-2.589999884E-2
5.578592187E0,-9.039999545E-2,3.429999948E-1,5.460000038E-2
5.588518750E0,-2.799999900E-2,2.353999913E-1,2.039999887E-2
5.598445312E0,7.169999927E-2,3.125999868E-1,-2.669999935E-2
5.608371875E0,5.029999837E-2,3.033999801E-1,6.610000134E-2
5.618298437E0,1.899999939E-2,3.339999914E-1,7.159999758E-2
5.628225000E0,4.569999874E-2,2.947999835E-1,8.109999448E-2
5.638151562E0,1.155999973E-1,3.158999979E-1,1.440999955E-1
5.648076562E0,3.969999775E-2,2.797999978E-1,9.429999441E-2
5.658003125E0,-6.619999558E-2,3.116999865E-1,8.969999850E-2
5.667929687E0,-4.449999705E-2,3.617999852E-1,6.199999712E-3
5.677856250E0,-4.079999775E-2,3.712999821E-1,-6.729999930E-2
5.687782812E0,-6.169999763E-2,3.201999962E-1,-9.219999611E-2
5.697707812E0,-6.689999998E-2,3.287999928E-1,-1.789999940E-2
5.707635937E0,9.699999355E-3,2.967000008E-1,-2.740000002E-2
5.717560937E0,6.109999865E-2,3.152999878E-1,4.600000009E-2
5.727487500E0,9.319999814E-2,3.059999943E-1,9.269999713E-2
5.737414062E0,6.469999999E-2,2.777000070E-1,6.949999928E-2
5.747340625E0,5.099999718E-3,2.280000001E-1,-2.410000004E-2
5.757267187E0,6.099999696E-2,2.081999928E-1,-4.490000010E-2
5.767192187E0,-7.819999754E-2,2.465999871E-1,-5.020000041E-2
5.777118750E0,-4.519999772E-2,2.838000059E-1,-4.739999771E-2
5.787045312E0,-1.999999949E-4,3.104999959E-1,-7.779999822E-2
5.796971875E0,-7.140000165E-2,2.602999806E-1,-2.510000020E-2
5.806896875E0,-3.720000014E-2,2.899000049E-1,5.810000002E-2
5.816823437E0,-5.529999733E-2,2.708999813E-1,9.789999574E-2
5.826750000E0,-1.630000025E-2,2.515999973E-1,2.709999867E-2
5.836676562E0,7.999999798E-4,3.008999825E-1,-6.119999662E-2
5.846603125E0,-3.079999983E-2,2.911999822E-1,-3.150000051E-2
5.856528125E0,4.789999872E-2,2.917999923E-1,1.021999940E-1
5.866456250E0,-5.419999734E-2,2.823999822E-1,1.064999998E-1
5.876382812E0,-8.259999752E-2,3.131999969E-1,8.020000160E-2
5.886307812E0,1.300000004E-3,3.446999788E-1,3.869999945E-2
5.896234375E0,4.669999704E-2,3.073000014E-1,4.389999807E-2
5.906160937E0,6.639999896E-2,2.875999808E-1,6.499999668E-3
5.916087500E0,1.005999967E-1,3.540999889E-1,-6.799999624E-2
5.926014062E0,3.319999948E-2,3.445999920E-1,9.549999982E-2
5.935940625E0,-8.439999819E-2,3.168999851E-1,1.274999976E-1
5.945867187E0,-8.889999986E-2,3.375999928E-1,8.529999852E-2
5.955793750E0,-5.429999903E-2,3.470999897E-1,-5.339999869E-2
5.965720312E0,-6.560000032E-2,4.059000015E-1,-1.510999948E-1
5.975645312E0,-1.048999950E-1,4.156000018E-1,3.899999894E-3
5.985570312E0,-2.319999970E-2,3.643999994E-1,-1.459999941E-2
5.995496875E0,7.289999723E-2,4.010999799E-1,3.999999724E-3
6.005423437E0,8.069999516E-2,4.588999748E-1,6.799999624E-3
6.015351562E0,-2.679999918E-2,3.334999979E-1,1.075999960E-1
6.025276562E0,1.189999934E-2,3.334999979E-1,9.730000049E-2
6.035203125E0,1.899999939E-2,2.644000053E-1,-1.960000023E-2
6.045129687E0,-1.409999933E-2,3.041000068E-1,-6.799999624E-3
6.055056250E0,3.539999947E-2,2.861000001E-1,4.679999873E-2
6.064982812E0,6.219999865E-2,2.656999826E-1,4.969999939E-2
6.074907812E0,-1.209999993E-2,3.428999782E-1,-9.599999525E-3
6.084835937E0,-1.388999969E-1,3.538999856E-1,2.719999850E-2
6.094762500E0,-1.952999979E-1,3.353999853E-1,-5.499999970E-3
6.104687500E0,-1.046999991E-1,3.264999986E-1,5.379999802E-2
6.114614062E0,-4.399999976E-3,3.351999819E-1,-1.035999954E-1
6.124540625E0,7.159999758E-2,2.963999808E-1,5.499999970E-3
6.134465625E0,7.459999621E-2,2.865999937E-1,9.519999474E-2
6.144393750E0,1.020999998E-1,2.761999965E-1,8.119999617E-2
6.154320312E0,6.870000064E-2,1.772999913E-1,7.750000060E-2
6.164245312E0,6.009999663E-2,2.885999978E-1,1.317999959E-1
6.174171875E0,8.069999516E-2,2.912999988E-1,1.134999990E-1
6.184098437E0,1.469999924E-2,3.226999938E-1,9.339999408E-2
6.194025000E0,1.119999960E-2,2.755999863E-1,4.710000008E-2
6.203951562E0,-3.979999945E-2,2.381999940E-1,1.339999959E-2
6.213878125E0,-1.219999976E-2,2.683999836E-1,4.270000011E-2
6.223804687E0,9.999999404E-2,2.171999961E-1,-8.879999816E-2
6.233729687E0,1.087999940E-1,1.838999987E-1,-1.571999937E-1
6.243656250E0,1.199999941E-3,1.911000013E-1,-6.319999695E-2
6.253581250E0,-4.149999842E-2,2.180999964E-1,-2.899999917E-2
6.263507812E0,-3.339999914E-2,2.551999986E-1,5.249999836E-2
6.273434375E0,-4.369999841E-2,2.945999801E-1,7.919999957E-2
6.283362500E0,-1.748999953E-1,3.069999814E-1,8.569999784E-2
6.293287500E0,-1.054999977E-1,2.590999901E-1,1.640000008E-2
6.303214062E0,-1.661999971E-1,2.793999910E-1,-4.939999804E-2
6.313140625E0,-6.639999896E-2,4.176999927E-1,1.150000002E-2
6.323067187E0,-9.250000119E-2,3.982999921E-1,-4.470000044E-2
6.332992187E0,-2.879999951E-2,3.953999877E-1,-1.181999967E-1
6.342918750E0,-6.480000168E-2,4.812999964E-1,-1.375999898E-1
6.352845312E0,-7.400000002E-3,4.899999797E-1,1.069999952E-2
6.362771875E0,-3.109999932E-2,6.085000038E-1,2.012999952E-1
6.372698437E0,-7.999999798E-4,5.898000002E-1,1.888999939E-1
6.382625000E0,4.699999839E-2,6.222999692E-1,2.067999989E-1
6.392551562E0,1.439999938E-1,4.792999923E-1,1.687999964E-1
6.402478125E0,1.204999983E-1,5.722000003E-1,1.787000000E-1
6.412404687E0,3.929999843E-2,4.570999742E-1,1.338000000E-1
6.422331250E0,6.819999963E-2,4.007999897E-1,7.389999926E-2
6.432257812E0,2.180000022E-2,3.592999876E-1,-1.516000032E-1
6.442182812E0,-2.899999963E-3,2.885999978E-1,-9.730000049E-2
6.452109375E0,5.929999799E-2,2.347999960E-1,-1.287000030E-1
6.462034375E0,-4.389999807E-2,1.891999990E-1,-1.964999884E-1
6.471960937E0,-6.529999524E-2,1.429999918E-1,-2.362999916E-1
6.481887500E0,-1.284999996E-1,2.186999917E-1,-1.252999902E-1
6.491814062E0,-1.054999977E-1,2.285999954E-1,1.878999919E-1
6.501740625E0,1.310000010E-2,2.719999850E-1,4.411000013E-1
6.511667187E0,4.769999906E-2,2.886999846E-1,3.883999884E-1
6.521592187E0,9.299999475E-2,1.503999978E-1,1.664000005E-1
6.531518750E0,5.269999802E-2,1.776999980E-1,-1.979999989E-2
6.541445312E0,2.009999938E-2,2.382999957E-1,-1.134999990E-1
6.551371875E0,-4.999999702E-2,1.981000006E-1,3.329999745E-2
6.561298437E0,-7.750000060E-2,2.362999916E-1,8.659999818E-2
6.571225000E0,-7.840000093E-2,2.440999895E-1,-4.199999943E-2
6.581151562E0,4.279999807E-2,2.423999906E-1,-7.079999894E-2
6.591076562E0,8.630000055E-2,1.720999926E-1,-1.213999987E-1
6.601003125E0,1.459999979E-1,1.904999912E-1,8.219999820E-2
6.610929687E0,1.078999937E-1,1.999999881E-1,1.679999977E-1
6.620856250E0,3.830000013E-2,2.694999874E-1,6.499999762E-2
6.630782812E0,-5.159999803E-2,3.202999830E-1,3.359999880E-2
6.640709375E0,9.499999695E-3,3.721999824E-1,8.999999845E-4
6.650635937E0,3.509999812E-2,2.638999820E-1,-3.899999894E-3
6.660560937E0,9.499999695E-3,2.830999792E-1,8.940000087E-2
6.670487500E0,-1.420000009E-2,3.427999914E-1,6.949999928E-2
6.680414062E0,-1.027999967E-1,3.831000030E-1,5.729999766E-2
6.690340625E0,-1.096999943E-1,3.559999764E-1,8.339999616E-2
6.700267187E0,-4.019999877E-2,3.087999821E-1,3.590000048E-2
6.710193750E0,-2.369999886E-2,3.950999975E-1,-6.700000167E-2
6.720118750E0,-1.090000011E-2,3.926999867E-1,-7.719999552E-2
6.730045312E0,7.999999798E-4,3.308999836E-1,-8.159999549E-2
6.739971875E0,3.099999856E-3,3.467999995E-1,-2.850000001E-2
6.749898437E0,-4.799999762E-3,3.637999892E-1,3.379999846E-2
6.759825000E0,2.689999901E-2,3.141999841E-1,4.030000046E-2
6.769751562E0,9.699999355E-3,3.247999847E-1,8.699999750E-2
6.779678125E0,5.139999837E-2,3.472999930E-1,1.476999968E-1
6.789604687E0,7.569999993E-2,3.597999811E-1,1.120999977E-1
6.799529687E0,1.283999979E-1,2.630999982E-1,2.469999902E-2
6.809456250E0,1.219999939E-1,2.660999894E-1,7.009999454E-2
6.819382812E0,7.449999452E-2,2.490999997E-1,6.359999627E-2
6.829309375E0,-9.200000204E-3,2.579999864E-1,-2.290000021E-2
6.839235937E0,-1.679999940E-2,2.481999993E-1,2.779999934E-2
6.849162500E0,-1.017000005E-1,2.894999981E-1,8.190000057E-2
6.859087500E0,-8.679999411E-2,3.607999980E-1,1.691000015E-1
6.869014062E0,-1.393999904E-1,3.716000021E-1,7.970000058E-2
6.878940625E0,-1.907999963E-1,4.143999815E-1,6.650000066E-2
6.888867187E0,-1.865999997E-1,4.481999874E-1,8.379999548E-2
6.898793750E0,-2.989999950E-2,4.616999924E-1,1.141999960E-1
6.908720312E0,6.059999764E-2,5.026999712E-1,1.314999908E-1
6.918645312E0,2.128999978E-1,4.461999834E-1,9.510000050E-2
6.928571875E0,2.043999881E-1,3.995999992E-1,9.420000017E-2
6.938498437E0,2.012999952E-1,2.818999887E-1,-9.599999525E-3
6.948425000E0,2.089999914E-1,1.231999993E-1,-7.930000126E-2
6.958351562E0,2.705000043E-1,1.108999997E-1,-1.190999970E-1
6.968276562E0,2.593999803E-1,9.009999782E-2,-8.079999685E-2
6.978203125E0,1.605999917E-1,7.090000063E-2,1.970000006E-2
6.988129687E0,1.129999943E-2,1.601999998E-1,3.680000082E-2
6.998056250E0,-9.609999508E-2,3.115999997E-1,2.003999949E-1
7.007982812E0,-2.437999994E-1,3.546999991E-1,2.168999910E-1
7.017907812E0,-2.610000074E-1,4.452999830E-1,1.419999897E-1
7.027834375E0,-2.569999993E-1,4.271000028E-1,1.006999984E-1
7.037762500E0,-1.143999994E-1,4.666999876E-1,-5.209999904E-2
7.047689062E0,-3.909999877E-2,3.743999898E-1,-8.370000124E-2
7.057615625E0,-3.299999982E-3,4.447000027E-1,-1.520999968E-1
7.067540625E0,4.939999804E-2,4.776999950E-1,-5.609999970E-2
7.077465625E0,6.799999624E-3,4.603999853E-1,-6.279999763E-2
7.087393750E0,-9.989999980E-2,3.956999779E-1,-9.030000120E-2
7.097318750E0,-9.510000050E-2,4.001999795E-1,-7.069999725E-2
7.107245312E0,-1.499999911E-1,5.059999824E-1,-5.799999926E-3
7.117171875E0,-9.749999642E-2,4.873999953E-1,1.851999909E-1
7.127098437E0,-1.696999967E-1,4.709999859E-1,1.809999943E-1
7.137025000E0,3.909999877E-2,4.648000002E-1,1.333999932E-1
7.146951562E0,2.449999936E-2,4.193999767E-1,3.949999809E-2
7.156876562E0,3.669999912E-2,4.649999738E-1,1.696999967E-1
7.166803125E0,6.119999662E-2,4.388999939E-1,1.643999964E-1
7.176731250E0,2.630000003E-2,3.820999861E-1,1.085999981E-1
7.186656250E0,1.062999964E-1,3.628999889E-1,-7.199999876E-3
7.196582812E0,1.518999934E-1,3.449999988E-1,-1.789999940E-2
7.206509375E0,2.058999985E-1,2.469999939E-1,6.729999930E-2
7.216435937E0,4.449999705E-2,2.466999888E-1,7.059999555E-2
7.226360937E0,3.390000015E-2,1.553999931E-1,-7.479999959E-2
7.236287500E0,2.049999870E-2,1.242999956E-1,-1.039999947E-1
7.246214062E0,8.529999852E-2,1.521999985E-1,-6.539999694E-2
7.256140625E0,6.119999662E-2,6.319999695E-2,8.949999511E-2
7.266067187E0,4.129999876E-2,5.169999972E-2,4.209999740E-2
7.275993750E0,9.820000082E-2,6.340000033E-2,2.300000004E-2
7.285920312E0,-9.499999695E-3,9.299999475E-2,-8.150000125E-2
7.295846875E0,-1.977999955E-1,2.397999913E-1,-1.199999941E-3
7.305773437E0,-2.725999951E-1,2.743999958E-1,-1.730000041E-2
7.315700000E0,-2.619000077E-1,3.094999790E-1,-5.240000039E-2
7.325625000E0,-2.726999819E-1,2.545999885E-1,-1.720999926E-1
7.335550000E0,-8.410000056E-2,4.175999761E-1,-1.798999906E-1
7.345478125E0,-1.087999940E-1,4.134999812E-1,-9.709999710E-2
7.355403125E0,-6.369999796E-2,3.524999917E-1,2.009999938E-2
7.365329687E0,-2.589999884E-2,3.606999815E-1,4.699999839E-2
7.375256250E0,4.799999762E-3,3.798999786E-1,4.879999906E-2
7.385182812E0,-2.520000003E-2,3.829999864E-1,1.304000020E-1
7.395109375E0,9.349999577E-2,4.052000046E-1,1.597999930E-1
7.405034375E0,1.518999934E-1,4.167999923E-1,1.567000002E-1
7.414960937E0,2.073999941E-1,4.306999743E-1,2.236000001E-1
7.424887500E0,1.829999983E-1,3.802999854E-1,2.951999903E-1
7.434814062E0,1.159999967E-1,4.184999764E-1,2.610999942E-1
7.444742187E0,8.940000087E-2,3.571999967E-1,1.257999986E-1
7.454667187E0,5.209999904E-2,3.630999923E-1,1.860000007E-2
7.464593750E0,-3.390000015E-2,3.646999896E-1,-4.369999841E-2
7.474518750E0,-7.169999927E-2,3.722999990E-1,-6.099999882E-3
7.484445312E0,-1.753999889E-1,3.561999798E-1,-8.109999448E-2
7.494371875E0,-1.322000027E-1,3.023000062E-1,-5.680000037E-2
7.504298437E0,4.140000045E-2,2.953999937E-1,-1.667999923E-1
7.514225000E0,2.129999921E-2,2.606999874E-1,-1.019999981E-1
7.524151562E0,8.630000055E-2,2.739000022E-1,-8.249999583E-2
7.534078125E0,-8.020000160E-2,2.413999885E-1,-6.799999624E-3
7.544003125E0,1.249999925E-2,3.863999844E-1,8.429999650E-2
7.553929687E0,-1.181999967E-1,4.080999792E-1,1.206000000E-1
7.563856250E0,6.819999963E-2,3.822000027E-1,1.872999966E-1
7.573782812E0,-7.199999876E-3,3.185999990E-1,1.353999972E-1
7.583709375E0,3.070000000E-2,2.606000006E-1,-5.209999904E-2
7.593635937E0,9.099999443E-3,2.813999951E-1,-4.799999762E-3
7.603560937E0,4.779999703E-2,2.124999911E-1,-1.469999924E-2
7.613487500E0,3.819999844E-2,2.186999917E-1,-6.439999491E-2
7.623414062E0,-3.599999845E-2,1.975999922E-1,7.800000161E-2
7.633340625E0,-7.759999484E-2,1.929000020E-1,2.018999904E-1
7.643267187E0,-1.212999970E-1,2.454999983E-1,1.375999898E-1
7.653193750E0,-1.441999972E-1,2.584999800E-1,6.279999763E-2
7.663120312E0,-2.252999991E-1,3.522000015E-1,6.000000052E-3
7.673045312E0,-1.780999899E-1,5.001999736E-1,-8.219999820E-2
7.682971875E0,-4.160000011E-2,3.899999857E-1,-2.489999868E-2
7.692898437E0,1.125999987E-1,3.251999915E-1,-1.380999982E-1
7.702826562E0,8.839999884E-2,3.971999884E-1,-1.385999918E-1
7.712751562E0,9.999999404E-2,3.820999861E-1,3.099999856E-3
7.722678125E0,1.585000008E-1,3.786999881E-1,5.749999732E-2
7.732604687E0,1.908999979E-1,4.472999871E-1,2.457999885E-1
7.742531250E0,1.657999903E-1,4.447999895E-1,3.621999919E-1
7.752456250E0,9.799999744E-2,3.572999835E-1,2.727999985E-1
7.762382812E0,8.909999579E-2,3.366000056E-1,1.264999956E-1
7.772309375E0,6.359999627E-2,4.122999907E-1,1.019999944E-2
7.782235937E0,-3.849999979E-2,3.161000013E-1,-4.389999807E-2
7.792162500E0,-5.879999697E-2,3.506000042E-1,-7.419999689E-2
7.802089062E0,-1.444000006E-1,3.342999816E-1,-7.759999484E-2
7.812015625E0,-1.165999994E-1,3.199000061E-1,-1.889999956E-2
7.821940625E0,-1.799999923E-2,2.372999936E-1,-5.729999766E-2
7.831867187E0,1.090000011E-2,1.756999940E-1,0.000000000E0
7.841793750E0,4.800000042E-2,1.844999939E-1,2.999999933E-2
7.851720312E0,5.639999732E-2,2.045999914E-1,5.329999700E-2
7.861646875E0,3.940000013E-2,1.633999944E-1,-4.419999942E-2
7.871573437E0,-1.539999992E-2,1.498000026E-1,-1.801999956E-1
7.881498437E0,-1.137999967E-1,1.552999914E-1,-1.324999928E-1
7.891425000E0,-4.140000045E-2,2.004999965E-1,-4.879999906E-2
7.901351562E0,-3.790000081E-2,2.061999887E-1,-6.599999964E-3
7.911278125E0,-1.626999974E-1,2.355999947E-1,1.260000020E-1
7.921204687E0,-1.270999908E-1,3.188999891E-1,1.930999905E-1
7.931131250E0,-1.665999889E-1,3.930999935E-1,1.675999910E-1
7.941057812E0,-3.599999938E-3,3.307999969E-1,1.662999988E-1
7.950982812E0,1.387999952E-1,3.050000072E-1,-7.100000046E-3
7.960909375E0,1.242999956E-1,2.453999966E-1,-7.599999756E-2
7.970835937E0,1.576000005E-1,3.098999858E-1,-9.349999577E-2
7.980762500E0,1.489999890E-1,2.275999933E-1,-4.299999774E-2
7.990689062E0,4.659999907E-2,2.511999905E-1,-7.789999992E-2
8.000615625E0,7.499999553E-2,1.909999996E-1,4.539999738E-2
8.010542187E0,7.039999962E-2,3.472999930E-1,3.529999778E-2
8.020467187E0,-1.919999905E-2,4.095999897E-1,2.012999952E-1
8.030393750E0,-1.098999977E-1,4.923999906E-1,2.393999994E-1
8.040320312E0,-1.084999964E-1,5.871999860E-1,1.802999973E-1
8.050246875E0,-8.259999752E-2,6.600999832E-1,1.271999925E-1
8.060173437E0,-5.599999800E-2,6.762999892E-1,1.180000007E-1
8.070098437E0,-1.689999923E-2,6.316999793E-1,1.683999896E-1
8.080025000E0,7.000000030E-2,5.453999639E-1,1.115999967E-1
8.089951562E0,9.519999474E-2,4.866999984E-1,2.080000006E-2
8.099878125E0,1.568999887E-1,3.595999777E-1,-3.700000001E-3
8.109804687E0,1.538999975E-1,3.093999922E-1,-4.050000012E-2
8.119731250E0,8.519999683E-2,2.556999922E-1,-8.280000091E-2
8.129657812E0,5.200000014E-3,3.003000021E-1,-5.680000037E-2
8.139584375E0,-3.199999779E-2,3.260000050E-1,-5.749999732E-2
8.149509375E0,-1.260000002E-2,2.849999964E-1,5.810000002E-2
8.159435937E0,-5.629999936E-2,3.431999981E-1,1.001999974E-1
8.169362500E0,-1.044999957E-1,3.242000043E-1,7.859999686E-2
8.179289062E0,-1.767999977E-1,3.035999835E-1,-3.319999948E-2
8.189215625E0,-1.096999943E-1,2.333000004E-1,-1.159999967E-1
8.199142187E0,-2.659999952E-2,1.790999919E-1,-1.689999998E-1
8.209068750E0,4.100000020E-3,1.636999995E-1,-1.231999993E-1
8.218993750E0,7.299999893E-2,1.770000011E-1,-1.058999971E-1
8.228920312E0,4.820000008E-2,1.130999997E-1,-1.079999954E-1
8.238846875E0,9.789999574E-2,7.209999859E-2,4.239999875E-2
8.248773437E0,9.059999883E-2,1.799999923E-1,6.229999661E-2
8.258700000E0,5.379999802E-2,1.719999909E-1,1.375999898E-1
8.268626562E0,1.499999966E-2,1.952999979E-1,1.585000008E-1
8.278551562E0,3.899999894E-3,2.599000037E-1,1.465999931E-1
8.288478125E0,-4.669999704E-2,2.935999930E-1,1.261000037E-1
8.298404687E0,-6.459999830E-2,3.375999928E-1,1.107999980E-1
8.308331250E0,-5.130000040E-2,3.806999922E-1,1.081999987E-1
8.318257812E0,2.309999987E-2,4.312999845E-1,3.269999847E-2
8.328182812E0,-7.999999798E-4,3.324999809E-1,-3.889999911E-2
8.338109375E0,-2.070000023E-2,4.672999978E-1,-7.209999859E-2
8.348035937E0,4.449999705E-2,4.546999931E-1,-3.219999745E-2
8.357962500E0,-6.549999863E-2,4.429999888E-1,7.580000162E-2
8.367889062E0,-5.099999718E-3,5.843999982E-1,3.164999783E-1
8.377814062E0,1.255999953E-1,4.531999826E-1,2.654999793E-1
8.387740625E0,1.096999943E-1,4.781999886E-1,8.819999546E-2
8.397667187E0,4.930000007E-2,3.574999869E-1,7.759999484E-2
8.407593750E0,7.119999826E-2,4.120999873E-1,4.369999841E-2
8.417520312E0,-2.239999920E-2,3.992999792E-1,-4.509999976E-2
8.427445312E0,-1.740000024E-2,2.937999964E-1,-1.562999934E-1
8.437371875E0,-1.665999889E-1,3.858999908E-1,-1.450999975E-1
8.447298437E0,-2.474999875E-1,3.213000000E-1,-4.399999976E-2
8.457225000E0,-1.204999983E-1,2.856000066E-1,-4.679999873E-2
8.467151562E0,-1.999999862E-3,2.802999914E-1,-8.219999820E-2
8.477078125E0,5.379999802E-2,2.008999884E-1,2.199999988E-3
8.487004687E0,3.629999980E-2,2.691999972E-1,2.599999867E-2
8.496929687E0,1.769999973E-2,1.885000020E-1,-8.100000210E-3
8.506856250E0,6.369999796E-2,1.491999924E-1,5.849999934E-2
8.516782812E0,1.017000005E-1,2.111999989E-1,1.172999963E-1
8.526709375E0,9.049999714E-2,2.049999982E-1,1.635999978E-1
8.536635937E0,-3.070000000E-2,2.759000063E-1,7.019999623E-2
8.546562500E0,-1.288999915E-1,3.684999943E-1,9.250000119E-2
8.556489062E0,-5.659999698E-2,3.707999885E-1,2.879999951E-2
8.566415625E0,-5.370000005E-2,3.916999996E-1,4.629999772E-2
8.576340625E0,2.159999870E-2,3.714999855E-1,4.319999740E-2
8.586267187E0,1.221999973E-1,4.111000001E-1,2.840000018E-2
8.596193750E0,-1.049999986E-2,4.402000010E-1,5.109999701E-2
8.606120312E0,4.899999872E-2,3.818999827E-1,4.569999874E-2
8.616046875E0,1.659999974E-2,4.697999954E-1,3.929999843E-2
8.625973437E0,3.529999778E-2,5.496999621E-1,1.141999960E-1
8.635900000E0,6.099999696E-2,4.154999852E-1,1.432999969E-1
8.645826562E0,5.849999934E-2,3.976999819E-1,6.870000064E-2
8.655751562E0,8.109999448E-2,3.285999894E-1,-4.259999841E-2
8.665678125E0,1.279999968E-2,2.716000080E-1,3.029999882E-2
8.675604687E0,-1.499999966E-2,2.509999871E-1,-1.779999956E-2
8.685531250E0,-7.279999554E-2,2.377000004E-1,-2.479999885E-2
8.695456250E0,-1.506000012E-1,3.017999828E-1,-8.119999617E-2
8.705384375E0,-1.404999942E-1,3.264999986E-1,-1.630999893E-1
8.715309375E0,-1.304000020E-1,3.328000009E-1,3.499999875E-3
8.725235937E0,-4.369999841E-2,3.409000039E-1,5.549999699E-2
8.735164062E0,5.359999835E-2,2.805999815E-1,4.600000009E-2
8.745089062E0,8.150000125E-2,2.123999894E-1,6.839999557E-2
8.755014062E0,6.870000064E-2,1.551000029E-1,-1.989999972E-2
8.764942187E0,-6.599999964E-2,7.429999858E-2,-1.114999950E-1
8.774868750E0,-6.570000201E-2,1.193999946E-1,-1.418000013E-1
8.784795312E0,3.649999946E-2,1.146999970E-1,-1.689999998E-1
8.794720312E0,-6.369999796E-2,1.697999984E-1,-4.490000010E-2
8.804648437E0,-7.440000027E-2,2.970999777E-1,1.413999945E-1
8.814573437E0,1.099999994E-3,4.373999834E-1,2.730999887E-1
8.824500000E0,-6.459999830E-2,3.759999871E-1,3.466999829E-1
8.834425000E0,-8.699999750E-2,4.740999937E-1,2.314999998E-1
8.844351562E0,1.560000032E-1,5.911999941E-1,1.893000007E-1
8.854278125E0,1.797000021E-1,4.805999994E-1,1.261999905E-1
8.864204687E0,1.959999949E-1,5.041999817E-1,6.839999557E-2
8.874131250E0,1.527999938E-1,5.059999824E-1,1.109999940E-1
8.884057812E0,2.759999968E-2,5.669000149E-1,6.839999557E-2
8.893984375E0,7.479999959E-2,5.683999658E-1,7.989999652E-2
8.903909375E0,4.129999876E-2,6.018999815E-1,1.964999884E-1
8.913837500E0,-6.520000100E-2,5.149999857E-1,5.609999970E-2
8.923764062E0,-4.089999944E-2,3.858999908E-1,-2.029999904E-2
8.933690625E0,-3.579999879E-2,3.951999843E-1,-7.100000046E-3
8.943615625E0,5.709999800E-2,2.759999931E-1,-3.460000083E-2
8.953542187E0,5.189999938E-2,2.328999937E-1,2.759999968E-2
8.963467187E0,-5.299999844E-3,2.624000013E-1,8.659999818E-2
8.973393750E0,-9.829999506E-2,2.219999880E-1,-2.319999970E-2
8.983320312E0,-9.129999578E-2,2.669000030E-1,-1.155999973E-1
8.993246875E0,-1.278999895E-1,2.428999990E-1,-1.094999984E-1
9.003173437E0,-5.449999869E-2,2.841999829E-1,-1.930999905E-1
9.013100000E0,-1.209999993E-2,2.368000001E-1,-1.175999939E-1
9.023026562E0,-3.219999745E-2,2.514999807E-1,-2.219999954E-2
9.032951562E0,-1.255999953E-1,2.996000051E-1,8.020000160E-2
9.042878125E0,-1.147999987E-1,3.091000021E-1,9.709999710E-2
9.052804687E0,-1.102999970E-1,2.924000025E-1,8.869999647E-2
9.062731250E0,-7.270000130E-2,3.046000004E-1,1.219999976E-2
9.072657812E0,-8.819999546E-2,2.669999897E-1,-3.039999865E-2
9.082584375E0,-2.159999870E-2,2.457999885E-1,-6.560000032E-2
9.092509375E0,9.459999949E-2,2.721999884E-1,-6.350000203E-2
9.102435937E0,1.386999935E-1,3.007999957E-1,1.228000000E-1
9.112362500E0,1.735999882E-1,2.920999825E-1,1.744999886E-1
9.122289062E0,1.777999997E-1,2.653999925E-1,1.798999906E-1
9.132215625E0,2.930999994E-1,3.403999805E-1,2.057999969E-1
9.142142187E0,2.534999847E-1,2.994000018E-1,8.739999682E-2
9.152067187E0,2.232999951E-1,2.461999953E-1,4.429999739E-2
9.161993750E0,6.079999730E-2,2.886999846E-1,-4.600000102E-3
9.171920312E0,-5.130000040E-2,3.179000020E-1,-6.729999930E-2
9.181846875E0,-1.604000032E-1,3.231999874E-1,-3.409999982E-2
9.191773437E0,-2.759999931E-1,4.465999901E-1,4.050000012E-2
9.201700000E0,-3.304999769E-1,5.428999662E-1,1.605999917E-1
9.211626562E0,-3.201999962E-1,4.816999733E-1,8.999999613E-3
9.221553125E0,-6.159999967E-2,4.244999886E-1,4.729999974E-2
9.231478125E0,5.920000002E-2,4.032999873E-1,-1.068999991E-1
9.241404687E0,-1.249999925E-2,3.410999775E-1,-1.247999966E-1
9.251331250E0,-7.459999621E-2,2.468999922E-1,-8.639999479E-2
9.261257812E0,-5.909999833E-2,1.829999983E-1,-1.289999932E-1
9.271184375E0,6.499999668E-3,1.559000015E-1,-1.891999990E-1
9.281110937E0,1.132999957E-1,1.708000004E-1,-1.410000026E-1
9.291037500E0,1.776999980E-1,1.379999965E-1,-1.289999951E-2
9.300962500E0,1.652999967E-1,1.363999993E-1,1.248999983E-1
9.310889062E0,1.153999940E-1,1.568999887E-1,1.642999947E-1
9.320815625E0,4.169999808E-2,1.416999996E-1,1.772999913E-1
9.330742187E0,3.249999881E-2,1.598999947E-1,2.655999959E-1
9.340668750E0,-2.389999852E-2,2.481999993E-1,2.797999978E-1
9.350593750E0,2.719999850E-2,1.762999892E-1,9.559999406E-2
9.360521875E0,-7.099999487E-2,2.672999799E-1,-6.069999933E-2
9.370446875E0,-1.343999952E-1,3.073999882E-1,-8.109999448E-2
9.380373437E0,-6.260000169E-2,2.655999959E-1,-4.679999873E-2
9.390300000E0,-8.100000210E-3,2.699999809E-1,-3.070000000E-2
9.400226562E0,7.379999757E-2,3.061999977E-1,1.169999968E-2
9.410153125E0,8.789999783E-2,2.287999988E-1,8.810000122E-2
9.420078125E0,6.149999797E-2,3.657999933E-1,1.279999968E-2
9.430004687E0,-4.589999840E-2,3.845999837E-1,3.000000026E-3
9.439931250E0,-1.188999936E-1,3.737999797E-1,-2.669999935E-2
9.449857812E0,-4.299999774E-2,4.415999949E-1,-6.999999750E-3
9.459784375E0,3.299999982E-3,4.294999838E-1,2.869999968E-2
9.469710937E0,1.429999992E-2,3.606999815E-1,5.999999866E-2
9.479637500E0,7.159999758E-2,3.603999913E-1,3.399999812E-2
9.489562500E0,2.749999985E-2,3.696999848E-1,-9.300000034E-3
9.499489062E0,6.399999838E-3,4.002999961E-1,8.469999582E-2
9.509415625E0,2.439999953E-2,3.825999796E-1,1.122999936E-1
9.519342187E0,5.869999900E-2,3.630999923E-1,3.379999846E-2
9.529267187E0,-2.379999869E-2,3.240999877E-1,1.169999968E-2
9.539195312E0,1.799999969E-3,4.025000036E-1,-4.659999907E-2
9.549121875E0,-5.920000002E-2,3.824999928E-1,4.499999806E-2
9.559046875E0,-1.013999954E-1,5.302999616E-1,1.638000011E-1
9.568973437E0,7.499999832E-3,4.369999766E-1,2.500999868E-1
9.578900000E0,-1.314999908E-1,4.416999817E-1,1.644999981E-1
9.588826562E0,-1.439999938E-1,4.581999779E-1,1.138999984E-1
9.598753125E0,-1.087999940E-1,3.838000000E-1,1.349999942E-2
9.608678125E0,5.049999803E-2,3.331999779E-1,-1.096999943E-1
9.618606250E0,1.173999980E-1,2.951000035E-1,-2.504999936E-1
9.628532812E0,1.312000006E-1,2.460999936E-1,-2.604999840E-1
9.638457812E0,2.243999988E-1,2.299999893E-1,-9.699999355E-3
9.648384375E0,5.949999765E-2,2.066999972E-1,7.449999452E-2
9.658310937E0,6.260000169E-2,2.642000020E-1,9.489999712E-2
9.668237500E0,-5.040000007E-2,4.346999824E-1,1.851999909E-1
9.678164062E0,-1.583999991E-1,4.935999811E-1,3.253999949E-1
9.688090625E0,-4.969999939E-2,5.511000156E-1,2.962999940E-1
9.698017187E0,-1.400000006E-1,5.180999637E-1,1.290999949E-1
9.707942187E0,-4.439999908E-2,4.642999768E-1,-3.599999938E-3
9.717867187E0,-1.620000042E-2,2.926999927E-1,3.409999982E-2
9.727795312E0,4.349999875E-2,2.395999879E-1,-8.799999952E-2
9.737721875E0,1.033999994E-1,1.162999943E-1,-7.679999620E-2
9.747648437E0,6.769999862E-2,7.000000030E-2,-1.886999905E-1
9.757575000E0,-4.549999908E-2,2.279999852E-2,-2.736999989E-1
9.767500000E0,-1.296999902E-1,-1.539999992E-2,-1.726000011E-1
9.777425000E0,-7.859999686E-2,4.869999737E-2,-3.649999946E-2
9.787353125E0,-5.130000040E-2,7.599999756E-2,9.439999610E-2
9.797279687E0,4.069999978E-2,6.659999490E-2,9.279999882E-2
9.807206250E0,8.139999956E-2,1.788000017E-1,1.626999974E-1
9.817132812E0,-1.300000004E-3,2.228999883E-1,1.303000003E-1
9.827057812E0,-8.839999884E-2,3.252999783E-1,9.299999475E-2
9.836984375E0,-8.739999682E-2,3.570999801E-1,4.959999770E-2
9.846910937E0,-4.769999906E-2,3.807999790E-1,9.789999574E-2
9.856835937E0,-2.589999884E-2,3.938999772E-1,1.284999996E-1
9.866762500E0,2.410000004E-2,3.658999801E-1,5.719999969E-2
9.876689062E0,1.193999946E-1,3.650999963E-1,-1.879999973E-2
9.886615625E0,1.171999946E-1,2.978000045E-1,4.129999876E-2
9.896542187E0,1.744999886E-1,2.863000035E-1,-1.609999873E-2
9.906468750E0,5.659999698E-2,3.339000046E-1,5.460000038E-2
9.916395312E0,6.899999920E-3,3.822000027E-1,3.309999779E-2
9.926320312E0,-4.769999906E-2,4.030999839E-1,5.020000041E-2
9.936248437E0,-6.149999797E-2,3.646999896E-1,1.009999961E-1
9.946173437E0,-6.480000168E-2,5.060999990E-1,1.780999899E-1
9.956100000E0,-1.691000015E-1,4.199000001E-1,8.259999752E-2
9.966026562E0,-8.669999987E-2,4.023999870E-1,2.689999901E-2
9.975951562E0,-6.119999662E-2,5.609999895E-1,3.480000049E-2
9.985879687E0,-8.489999920E-2,3.941999972E-1,-1.599999890E-2
9.995806250E0,-5.499999970E-2,4.330999851E-1,9.149999917E-2
1.000573281E1,-6.159999967E-2,4.515999854E-1,1.689999923E-2
1.001565938E1,3.810000047E-2,4.386000037E-1,-7.999999821E-2
1.002558438E1,4.690000042E-2,3.770000041E-1,-3.419999778E-2
1.003551094E1,5.570000038E-2,3.851999938E-1,1.609999873E-2
1.004543750E1,6.509999931E-2,3.617999852E-1,2.889999934E-2
1.005536406E1,6.309999526E-2,3.492999971E-1,2.019999921E-2
1.006529063E1,1.039999947E-1,3.202999830E-1,4.010000080E-2
1.007521562E1,1.551999897E-1,3.027999997E-1,1.222999990E-1
1.008514219E1,8.819999546E-2,3.637999892E-1,1.287999898E-1
1.009506875E1,-2.269999869E-2,3.285000026E-1,1.493999958E-1
1.010499531E1,-4.580000043E-2,3.421999812E-1,7.409999520E-2
1.011492031E1,-5.969999731E-2,3.355000019E-1,3.619999811E-2
1.012484688E1,4.580000043E-2,2.875999808E-1,3.599999845E-2
1.013477344E1,-5.599999800E-3,2.675999999E-1,-9.599999525E-3
1.014470000E1,-3.729999810E-2,2.762999833E-1,2.969999984E-2
1.015462812E1,2.369999886E-2,2.532999814E-1,-8.720000088E-2
1.016455313E1,-3.509999812E-2,2.396999896E-1,-9.039999545E-2
1.017447812E1,-1.599999890E-2,2.653999925E-1,-3.509999812E-2
1.018440469E1,-3.390000015E-2,1.955999881E-1,4.559999704E-2
1.019433281E1,-3.790000081E-2,2.141999900E-1,9.519999474E-2
1.020425781E1,-1.056999937E-1,3.043999970E-1,8.720000088E-2
1.021418438E1,-1.008000001E-1,3.093000054E-1,1.412999928E-1
1.022411094E1,-4.270000011E-2,2.444999963E-1,5.959999934E-2
1.023403750E1,7.459999621E-2,2.665999830E-1,6.570000201E-2
1.024396250E1,1.200999990E-1,2.186999917E-1,2.479999885E-2
1.025388906E1,9.399999678E-2,1.118000001E-1,2.899999963E-3
1.026381563E1,1.260000002E-2,1.881999969E-1,-2.009999938E-2
1.027374219E1,5.669999868E-2,1.528999954E-1,-2.021999955E-1
1.028366875E1,3.999999724E-3,2.028999925E-1,-2.527000010E-1
1.029359531E1,-6.879999489E-2,2.554000020E-1,-1.062999964E-1
1.030352188E1,-9.879999608E-2,2.628999949E-1,1.352999955E-1
1.031344688E1,-8.769999444E-2,3.407000005E-1,1.930999905E-1
1.032337344E1,-6.599999964E-2,5.022999644E-1,2.228999883E-1
1.033330156E1,-8.829999715E-2,5.683999658E-1,1.331000030E-1
1.034322656E1,-1.228999943E-1,6.046000123E-1,9.409999847E-2
1.035315312E1,-3.509999812E-2,6.251999736E-1,2.919999883E-2
1.036307969E1,-1.769999973E-2,6.453999877E-1,4.719999805E-2
1.037300625E1,3.639999777E-2,5.974999666E-1,1.358000040E-1
1.038293281E1,1.726000011E-1,5.001000166E-1,1.115999967E-1
1.039285781E1,2.049999982E-1,4.403999746E-1,5.900000036E-2
1.040278438E1,1.978999972E-1,2.644999921E-1,8.599999361E-3
1.041271094E1,1.764999926E-1,2.061000019E-1,-2.429999970E-2
1.042263750E1,1.420999914E-1,2.513999939E-1,-1.180999950E-1
1.043256406E1,1.053999960E-1,1.203999966E-1,-9.219999611E-2
1.044249063E1,-1.052999943E-1,2.168999910E-1,4.209999740E-2
1.045241562E1,-1.743000001E-1,3.310000002E-1,-6.300000008E-3
1.046234219E1,-3.129999936E-1,4.564999938E-1,1.001999974E-1
1.047226875E1,-2.472999990E-1,5.070999861E-1,9.829999506E-2
1.048219531E1,-1.542999893E-1,6.270999908E-1,6.209999695E-2
1.049212188E1,-8.259999752E-2,6.261999607E-1,-5.299999844E-3
1.050204688E1,-1.331000030E-1,5.859000087E-1,-1.218999997E-1
1.051197344E1,-9.799999744E-2,5.044000149E-1,-7.679999620E-2
1.052190000E1,-4.629999772E-2,5.091999769E-1,-1.083999947E-1
1.053182656E1,2.099999972E-2,4.657000005E-1,-3.189999983E-2
1.054175313E1,1.092999950E-1,3.946000040E-1,5.529999733E-2
1.055167969E1,1.225999966E-1,3.642999828E-1,8.779999614E-2
1.056160469E1,2.190999985E-1,3.247999847E-1,1.528999954E-1
1.057153125E1,2.075999975E-1,3.190000057E-1,2.136999965E-1
1.058145781E1,1.994999945E-1,2.752999961E-1,1.740999967E-1
1.059138438E1,4.259999841E-2,2.533999979E-1,2.038999945E-1
1.060131094E1,2.799999900E-3,2.003999949E-1,6.119999662E-2
1.061123750E1,-9.160000086E-2,2.330999970E-1,1.099999994E-3
1.062116406E1,-7.270000130E-2,2.115999907E-1,-1.001999974E-1
1.063109062E1,-8.370000124E-2,1.972000003E-1,-1.563999951E-1
1.064101563E1,-7.859999686E-2,1.625999957E-1,-4.600000009E-2
1.065094219E1,-1.759999990E-1,1.668999940E-1,-1.206999943E-1
1.066086875E1,-6.269999593E-2,1.334999949E-1,-4.089999944E-2
1.067079531E1,-1.970000006E-2,8.299999684E-2,1.799999969E-3
1.068072188E1,4.129999876E-2,4.179999977E-2,-8.909999579E-2
1.069064844E1,8.699999750E-2,-1.119999960E-2,-1.059999987E-1
1.070057500E1,2.659999952E-2,7.559999824E-2,-2.499999851E-2
1.071050000E1,2.689999901E-2,8.370000124E-2,-1.399999950E-2
1.072042656E1,9.399999864E-3,2.449999936E-2,9.690000117E-2
1.073035312E1,4.069999978E-2,1.052000001E-1,1.413999945E-1
1.074027969E1,5.639999732E-2,7.739999890E-2,-7.899999619E-3
1.075020625E1,-3.379999846E-2,1.761000007E-1,-1.609999873E-2
1.076013125E1,-1.107999980E-1,2.479999959E-1,1.006999984E-1
1.077005781E1,-8.199999481E-2,2.407999933E-1,1.303000003E-1
1.077998438E1,-1.420000009E-2,2.921999991E-1,1.633999944E-1
1.078991094E1,-2.159999870E-2,3.571999967E-1,1.781999916E-1
1.079983750E1,-7.819999754E-2,3.734000027E-1,9.779999405E-2
1.080976250E1,-2.579999901E-2,3.746999800E-1,-1.319999993E-2
1.081969063E1,3.480000049E-2,3.750999868E-1,1.099999994E-3
1.082961562E1,7.580000162E-2,4.339999855E-1,3.900000080E-2
1.083954219E1,5.200000014E-3,4.226999879E-1,4.339999706E-2
1.084946875E1,-6.909999996E-2,4.017999768E-1,4.539999738E-2
1.085939531E1,-1.799999923E-2,4.318999946E-1,4.699999839E-2
1.086932188E1,1.919999905E-2,3.925999999E-1,1.789999940E-2
1.087924688E1,8.209999651E-2,4.509999752E-1,4.160000011E-2
1.088917344E1,8.720000088E-2,3.916999996E-1,4.289999977E-2
1.089910000E1,5.759999901E-2,3.231999874E-1,5.719999969E-2
1.090902656E1,7.689999789E-2,3.422999978E-1,2.989999950E-2
1.091895312E1,2.899999917E-2,4.017999768E-1,5.199999735E-2
1.092887969E1,2.180000022E-2,4.542999864E-1,1.753000021E-1
1.093880625E1,-3.689999878E-2,3.789999783E-1,1.253999919E-1
1.094873125E1,-1.129999943E-2,3.305999935E-1,1.189999934E-2
1.095865781E1,-7.499999553E-2,3.436999917E-1,7.999999821E-2
1.096858438E1,-3.049999848E-2,3.364000022E-1,3.819999844E-2
1.097851094E1,1.030000020E-2,3.154999912E-1,2.060000040E-2
1.098843750E1,3.409999982E-2,3.326999843E-1,-1.669999957E-2
1.099836406E1,1.829999872E-2,3.137999773E-1,1.640000008E-2
1.100828906E1,6.830000132E-2,2.784000039E-1,-1.539999992E-1
1.101821719E1,-5.719999969E-2,2.685000002E-1,1.114000008E-1
1.102814219E1,-1.601999998E-1,2.991999984E-1,1.392000020E-1
1.103806875E1,-5.709999800E-2,3.684999943E-1,4.609999806E-2
1.104799531E1,-3.629999980E-2,3.680000007E-1,3.329999745E-2
1.105792031E1,-8.729999512E-2,3.149999976E-1,4.399999976E-2
1.106784844E1,-1.026999950E-1,3.237999976E-1,-8.399999700E-3
1.107777344E1,-6.979999691E-2,3.200999796E-1,-4.899999872E-2
1.108770000E1,-4.079999775E-2,2.506999969E-1,-6.799999624E-3
1.109762656E1,9.089999646E-2,2.690999806E-1,-1.329999976E-2
1.110755312E1,1.532000005E-1,2.154999971E-1,-4.409999773E-2
1.111747969E1,1.215000004E-1,2.516999841E-1,-2.899999963E-3
1.112740625E1,8.190000057E-2,1.923999935E-1,3.399999812E-2
1.113733281E1,8.739999682E-2,1.432999969E-1,6.939999759E-2
1.114725781E1,-1.399999950E-2,1.937000006E-1,9.399999678E-2
1.115718594E1,-1.045999974E-1,2.558999956E-1,9.979999810E-2
1.116711250E1,-1.386999935E-1,2.395999879E-1,6.899999827E-2
1.117703750E1,-1.497000009E-1,2.894999981E-1,-2.300000004E-2
1.118696406E1,-1.759999990E-1,3.501999974E-1,3.039999865E-2
1.119689062E1,-1.653999984E-1,3.431999981E-1,7.109999657E-2
1.120681719E1,-4.299999680E-3,3.741999865E-1,8.549999446E-2
1.121674375E1,1.105000004E-1,3.843999803E-1,8.079999685E-2
1.122667031E1,1.286000013E-1,3.470999897E-1,5.749999732E-2
1.123659531E1,1.107999980E-1,3.382000029E-1,6.759999692E-2
1.124652344E1,9.779999405E-2,3.382000029E-1,7.379999757E-2
1.125644844E1,1.613999903E-1,3.017999828E-1,1.578999907E-1
1.126637500E1,7.869999856E-2,3.152999878E-1,1.242999956E-1
1.127630000E1,-2.840000018E-2,3.389999866E-1,9.999999404E-2
1.128622656E1,2.939999849E-2,3.445999920E-1,1.431999952E-1
1.129615312E1,-2.109999955E-2,3.682999909E-1,6.279999763E-2
1.130607969E1,-3.759999946E-2,3.107999861E-1,5.319999903E-2
1.131600625E1,-6.199999899E-2,2.990999818E-1,-5.999999866E-2
1.132593281E1,-1.335999966E-1,3.949999809E-1,-4.199999943E-2
1.133585781E1,-6.629999727E-2,3.813000023E-1,3.999999899E-4
1.134578594E1,-1.219999976E-2,3.402999938E-1,4.619999975E-2
1.135571250E1,5.199999735E-2,4.241999984E-1,-5.399999674E-3
1.136563906E1,8.399999700E-3,3.809999824E-1,-8.919999748E-2
1.137556562E1,-4.419999942E-2,3.477999866E-1,-6.610000134E-2
1.138549063E1,-1.069999952E-2,3.951999843E-1,6.509999931E-2
1.139541719E1,-1.099999994E-2,4.524999857E-1,1.181999967E-1
1.140534219E1,-7.599999662E-3,4.162999988E-1,2.000999898E-1
1.141526875E1,1.179999951E-2,4.007000029E-1,9.649999440E-2
1.142519531E1,2.300000051E-3,3.743999898E-1,2.009999938E-2
1.143512344E1,-3.119999915E-2,3.854999840E-1,2.999999933E-2
1.144504844E1,-5.700000003E-2,3.865999877E-1,4.230000079E-2
1.145497500E1,-1.389999967E-2,3.865000010E-1,1.118999943E-1
1.146490000E1,7.289999723E-2,3.463999927E-1,1.989999972E-2
1.147482656E1,9.329999983E-2,3.559999764E-1,9.599999525E-3
1.148475313E1,5.909999833E-2,3.079999983E-1,6.709999591E-2
1.149467969E1,5.079999939E-2,3.176999986E-1,3.599999845E-2
1.150460625E1,-3.099999856E-3,2.963999808E-1,3.909999877E-2
1.151453281E1,-1.669999957E-2,3.260999918E-1,2.699999884E-2
1.152445938E1,-7.609999925E-2,2.669000030E-1,-1.840000041E-2
1.153438438E1,-2.730000019E-2,3.043999970E-1,1.620000042E-2
1.154431094E1,-2.789999917E-2,3.220999837E-1,-5.799999926E-3
1.155423750E1,-8.559999615E-2,2.425999939E-1,1.589999907E-2
1.156416406E1,-4.109999910E-2,2.815999985E-1,5.020000041E-2
1.157409062E1,-8.679999411E-2,2.331999987E-1,3.790000081E-2
1.158401719E1,-4.820000008E-2,2.540999949E-1,7.039999962E-2
1.159394219E1,6.359999627E-2,2.529999912E-1,-4.719999805E-2
1.160386875E1,7.409999520E-2,2.026000023E-1,-1.899999939E-2
1.161379531E1,1.853999943E-1,1.692000031E-1,-7.759999484E-2
1.162372188E1,1.970999986E-1,9.779999405E-2,-1.049999986E-2
1.163364844E1,7.469999790E-2,7.620000094E-2,4.609999806E-2
1.164357500E1,7.930000126E-2,7.800000161E-2,7.029999793E-2
1.165350156E1,7.779999822E-2,7.979999483E-2,6.019999832E-2
1.166342656E1,5.639999732E-2,1.048000008E-1,1.048000008E-1
1.167335312E1,-5.920000002E-2,1.472999901E-1,6.520000100E-2
1.168327969E1,-1.137999967E-1,2.395000011E-1,1.088999957E-1
1.169320625E1,-1.668999940E-1,3.274999857E-1,-1.079999935E-2
1.170313281E1,-2.213999927E-1,3.384999931E-1,3.480000049E-2
1.171305938E1,-2.879000008E-1,4.642999768E-1,-1.409999933E-2
1.172298594E1,-3.055000007E-1,5.837999582E-1,7.679999620E-2
1.173291094E1,-2.166000009E-1,6.341999769E-1,1.013999954E-1
1.174283750E1,-8.810000122E-2,6.570999622E-1,6.059999764E-2
1.175276406E1,7.629999518E-2,6.372999549E-1,5.319999903E-2
1.176269063E1,1.094999984E-1,6.056999564E-1,-2.300000004E-2
1.177261719E1,6.870000064E-2,6.568999887E-1,-1.078999937E-1
1.178254375E1,4.109999910E-2,5.597999692E-1,-1.122999936E-1
1.179246875E1,4.299999774E-2,5.130000114E-1,-7.209999859E-2
1.180239531E1,9.319999814E-2,4.970999956E-1,8.499999531E-3
1.181232188E1,7.180000097E-2,4.860000014E-1,1.710999906E-1
1.182224844E1,8.049999923E-2,4.594999850E-1,2.289999872E-1
1.183217500E1,1.465999931E-1,4.632999897E-1,1.613999903E-1
1.184210156E1,9.449999779E-2,3.606999815E-1,1.162999943E-1
1.185202812E1,-4.299999680E-3,3.872999847E-1,1.308999956E-1
1.186195313E1,-3.099999949E-2,3.437999785E-1,1.513999999E-1
1.187187969E1,4.069999978E-2,3.647999763E-1,5.119999871E-2
1.188180625E1,7.840000093E-2,3.067999780E-1,-5.499999970E-3
1.189173281E1,9.079999477E-2,2.588000000E-1,5.699999630E-3
1.190165938E1,1.136999950E-1,2.395999879E-1,4.309999943E-2
1.191158594E1,4.989999905E-2,1.210999936E-1,5.289999768E-2
1.192151250E1,-6.189999729E-2,2.990999818E-1,8.109999448E-2
1.193143750E1,-1.033999994E-1,3.294000030E-1,2.309999987E-2
1.194136406E1,-1.988999993E-1,2.910999954E-1,4.189999774E-2
1.195129062E1,-1.419000030E-1,3.391000032E-1,7.999999798E-4
1.196121719E1,-7.930000126E-2,3.467999995E-1,-2.779999934E-2
1.197114375E1,-1.008000001E-1,3.225999773E-1,-9.179999679E-2
1.198107031E1,-1.184999943E-1,3.386999965E-1,-8.129999787E-2
1.199099531E1,-7.849999517E-2,3.328999877E-1,-9.049999714E-2
1.200092188E1,-9.669999778E-2,2.272000015E-1,-2.017999887E-1
1.201084844E1,-3.260000050E-2,2.629999816E-1,1.199999941E-3
1.202077500E1,2.630000003E-2,2.413999885E-1,2.669999935E-2
1.203070156E1,1.784999967E-1,3.287999928E-1,1.582999974E-1
1.204062813E1,2.157999873E-1,2.610000074E-1,1.618999988E-1
1.205055469E1,1.586999893E-1,2.859999835E-1,1.322000027E-1
1.206048125E1,1.118999943E-1,2.574999928E-1,-2.600000007E-3
1.207040625E1,1.083999947E-1,1.915999949E-1,1.869999990E-2
1.208033281E1,-6.599999964E-3,2.504999936E-1,8.999999613E-3
1.209025938E1,2.520000003E-2,2.909999788E-1,9.609999508E-2
1.210018594E1,2.749999985E-2,2.525999844E-1,9.950000048E-2
1.211011250E1,-4.690000042E-2,3.528999984E-1,4.919999838E-2
1.212003906E1,-1.970000006E-2,3.342999816E-1,3.889999911E-2
1.212996562E1,-3.539999947E-2,3.646000028E-1,1.030000020E-2
1.213989063E1,-9.319999814E-2,3.740999997E-1,5.119999871E-2
1.214981719E1,-5.119999871E-2,3.829999864E-1,3.989999741E-2
1.215974375E1,-1.840000041E-2,3.227999806E-1,-1.609999873E-2
1.216967031E1,8.379999548E-2,2.890000045E-1,-1.228999943E-1
1.217959688E1,9.009999782E-2,2.294999957E-1,3.099999949E-2
1.218952344E1,2.799999900E-2,2.180999964E-1,3.709999844E-2
1.219945000E1,2.269999869E-2,2.354999930E-1,9.899999946E-3
1.220937500E1,-1.166999936E-1,2.360000014E-1,8.299999684E-2
1.221930156E1,-1.273999959E-1,2.782999873E-1,4.270000011E-2
1.222922812E1,-1.484999955E-1,2.980999947E-1,4.219999909E-2
1.223915313E1,-7.549999654E-2,4.052000046E-1,-5.200000014E-3
1.224907969E1,-9.939999878E-2,3.367999792E-1,-2.879999951E-2
1.225900781E1,-1.999999949E-4,3.057000041E-1,-8.700000122E-3
1.226893438E1,3.489999846E-2,2.621999979E-1,-1.107999980E-1
1.227885938E1,6.480000168E-2,3.464999795E-1,-3.289999813E-2
1.228878594E1,5.209999904E-2,2.357999980E-1,-3.299999982E-2
1.229871250E1,5.339999869E-2,2.631999850E-1,3.189999983E-2
1.230863906E1,4.639999941E-2,2.337999940E-1,1.270999908E-1
1.231856563E1,6.489999592E-2,2.280000001E-1,1.674000025E-1
1.232849062E1,3.610000014E-2,2.324000001E-1,1.491999924E-1
1.233841719E1,7.209999859E-2,3.558999896E-1,1.397999972E-1
1.234834375E1,2.369999886E-2,3.430999815E-1,1.534999907E-1
1.235826875E1,1.640000008E-2,3.692999780E-1,1.643999964E-1
1.236819531E1,-1.175999939E-1,4.506999850E-1,7.019999623E-2
1.237812188E1,-1.127999946E-1,4.526999891E-1,3.460000083E-2
1.238805000E1,-8.320000023E-2,5.101999640E-1,-6.079999730E-2
1.239797500E1,-1.999999862E-3,4.878000021E-1,-2.569999918E-2
1.240790156E1,-2.520000003E-2,3.816999793E-1,-1.571999937E-1
1.241782813E1,-7.459999621E-2,2.965999842E-1,-1.304000020E-1
1.242775469E1,-7.499999553E-2,3.394999802E-1,-7.459999621E-2
1.243768125E1,-6.529999524E-2,3.179999888E-1,5.639999732E-2
1.244760781E1,-2.699999837E-3,3.061999977E-1,7.400000095E-2
1.245753438E1,4.079999775E-2,2.097999901E-1,8.559999615E-2
1.246745938E1,6.289999932E-2,2.811000049E-1,1.022999957E-1
1.247738594E1,1.130999997E-1,3.122999966E-1,2.809999883E-2
1.248731250E1,1.009999961E-2,2.533999979E-1,1.509999949E-2
1.249723906E1,-1.480000000E-2,2.735999823E-1,2.639999986E-2
1.250716562E1,-7.789999992E-2,2.728999853E-1,-1.379999984E-2
1.251709219E1,-5.680000037E-2,3.498999774E-1,1.229999959E-2
1.252701875E1,2.709999867E-2,2.820000052E-1,6.489999592E-2
1.253694375E1,1.850000024E-1,2.928999960E-1,9.769999981E-2
1.254687031E1,1.291999966E-1,2.859999835E-1,1.638000011E-1
1.255679688E1,7.180000097E-2,2.522999942E-1,1.772999913E-1
1.256672344E1,2.609999850E-2,2.398999929E-1,1.614999920E-1
1.257665000E1,-6.939999759E-2,3.425000012E-1,6.409999728E-2
1.258657656E1,-1.431999952E-1,3.829999864E-1,-3.570000082E-2
1.259650156E1,-1.824999899E-1,3.714999855E-1,-6.809999794E-2
1.260642812E1,-1.967999935E-1,3.194999993E-1,-4.659999907E-2
1.261635469E1,-2.104000002E-1,3.843999803E-1,-3.570000082E-2
1.262628125E1,-1.228999943E-1,3.319000006E-1,-7.129999995E-2
1.263620781E1,-1.189999934E-2,2.888999879E-1,-1.083999947E-1
1.264613438E1,1.220999956E-1,2.859999835E-1,-1.099999994E-2
1.265606094E1,2.119999975E-1,2.847999930E-1,1.513999999E-1
1.266598594E1,1.757999957E-1,2.533999979E-1,8.219999820E-2
1.267591250E1,2.044999897E-1,1.842999905E-1,4.849999771E-2
1.268583906E1,1.501999944E-1,1.969999969E-1,4.209999740E-2
1.269576562E1,6.740000099E-2,2.084999979E-1,-3.899999894E-3
1.270569219E1,3.869999945E-2,1.809999943E-1,1.454000026E-1
1.271561875E1,-8.649999648E-2,2.718999982E-1,1.013000011E-1
1.272554375E1,-1.322999895E-1,2.953000069E-1,1.144999936E-1
1.273547031E1,-1.472999901E-1,3.572999835E-1,8.549999446E-2
1.274539688E1,-7.419999689E-2,3.919000030E-1,9.129999578E-2
1.275532344E1,2.630000003E-2,4.010999799E-1,9.599999525E-3
1.276525000E1,1.960000023E-2,4.802999794E-1,4.389999807E-2
1.277517500E1,5.700000003E-2,4.974999726E-1,-1.519999932E-2
1.278510313E1,5.619999766E-2,4.654999971E-1,-1.399999950E-2
1.279502812E1,9.529999644E-2,3.735999763E-1,-2.300000051E-3
1.280495469E1,9.279999882E-2,3.095999956E-1,-1.322000027E-1
1.281488125E1,1.517999917E-1,2.651000023E-1,-8.799999952E-2
1.282480625E1,1.020999998E-1,2.330999970E-1,-1.769999973E-2
1.283473438E1,1.284999996E-1,1.729999930E-1,2.510000020E-2
1.284466094E1,-4.699999932E-3,2.106999904E-1,4.710000008E-2
1.285458750E1,-8.699999750E-2,2.922999859E-1,1.323999912E-1
1.286451250E1,-9.939999878E-2,2.449999899E-1,5.029999837E-2
1.287443906E1,-4.889999703E-2,2.369999886E-1,6.679999828E-2
1.288436563E1,-1.287000030E-1,2.985999882E-1,1.291999966E-1
1.289429219E1,-1.221999973E-1,4.114999771E-1,1.665999889E-1
1.290421875E1,-7.429999858E-2,3.526999950E-1,8.899999782E-3
1.291414375E1,-5.979999900E-2,4.013999999E-1,-5.659999698E-2
1.292407031E1,-2.019999921E-2,4.023000002E-1,2.549999952E-2
1.293399688E1,-1.699999906E-2,4.231999815E-1,1.325999945E-1
1.294392344E1,4.209999740E-2,4.329999983E-1,1.605999917E-1
1.295385000E1,3.439999744E-2,4.363999963E-1,1.306999922E-1
1.296377500E1,3.900000080E-2,3.826999962E-1,8.549999446E-2
1.297370156E1,2.999999851E-4,3.253999949E-1,-1.579999924E-2
1.298362813E1,-1.879999973E-2,3.051999807E-1,8.299999870E-3
1.299355469E1,-7.819999754E-2,2.525999844E-1,-7.809999585E-2
1.300348125E1,-8.259999752E-2,2.586999834E-1,-5.419999734E-2
1.301340781E1,-3.810000047E-2,3.032999933E-1,-4.179999977E-2
1.302333438E1,5.219999701E-2,2.107999921E-1,-8.079999685E-2
1.303325938E1,8.410000056E-2,1.401999891E-1,6.449999660E-2
1.304318594E1,3.759999946E-2,1.310999990E-1,7.620000094E-2
1.305311250E1,2.249999903E-2,1.304000020E-1,3.000000026E-3
1.306303906E1,1.273999959E-1,1.393999904E-1,-2.979999967E-2
1.307296562E1,4.539999738E-2,1.808999926E-1,2.699999884E-2
1.308289219E1,6.399999838E-3,2.023999989E-1,1.268000007E-1
1.309281719E1,-4.039999843E-2,2.412000000E-1,4.270000011E-2
1.310274375E1,-8.540000021E-2,3.400999904E-1,2.569999918E-2
1.311267031E1,-1.219999939E-1,3.619999886E-1,4.289999977E-2
1.312259688E1,-1.375000030E-1,4.138000011E-1,1.077999994E-1
1.313252344E1,-1.061000004E-1,3.434999883E-1,9.899999946E-3
1.314245000E1,-1.894000024E-1,3.154999912E-1,2.740000002E-2
1.315237656E1,-1.569999903E-1,3.762999773E-1,1.459999941E-2
1.316230156E1,-1.340999901E-1,4.158999920E-1,-1.999999955E-2
1.317222812E1,-8.509999514E-2,4.257999957E-1,7.369999588E-2
1.318215469E1,9.449999779E-2,3.698000014E-1,1.301999986E-1
1.319208125E1,2.039999962E-1,3.581999838E-1,3.280000016E-2
1.320200781E1,1.974999905E-1,2.687000036E-1,4.429999739E-2
1.321193438E1,1.718999892E-1,2.395999879E-1,3.329999745E-2
1.322185938E1,6.309999526E-2,2.911999822E-1,1.472999901E-1
1.323178594E1,0.000000000E0,2.836000025E-1,1.539999992E-1
1.324171250E1,-3.700000048E-2,3.066999912E-1,6.570000201E-2
1.325163906E1,-6.499999762E-2,3.777000010E-1,2.769999951E-2
1.326156563E1,-6.610000134E-2,3.237999976E-1,9.799999744E-2
1.327149219E1,3.539999947E-2,4.517999887E-1,7.449999452E-2
1.328141875E1,-4.499999806E-3,5.008000135E-1,8.549999446E-2
1.329134375E1,-9.099999443E-3,4.940999746E-1,1.306999922E-1
1.330127031E1,-1.909999922E-2,4.479999840E-1,6.889999658E-2
1.331119688E1,3.059999831E-2,3.960999846E-1,-2.850000001E-2
1.332112344E1,-8.899999782E-3,3.958999813E-1,3.249999881E-2
1.333105000E1,-1.659999974E-2,4.150999784E-1,3.579999879E-2
1.334097656E1,-5.590000004E-2,3.527999818E-1,-4.499999806E-3
1.335090312E1,-7.180000097E-2,3.489999771E-1,-2.219999954E-2
1.336082813E1,-8.469999582E-2,3.096999824E-1,3.000000026E-3
1.337075469E1,-4.209999740E-2,3.080999851E-1,1.989999972E-2
1.338068125E1,-2.889999934E-2,3.651999831E-1,3.769999743E-2
1.339060781E1,-8.659999818E-2,3.136999905E-1,-5.240000039E-2
1.340053438E1,-1.173999980E-1,3.594000041E-1,-1.123999953E-1
1.341046094E1,-8.109999448E-2,3.279999793E-1,7.999999798E-4
1.342038594E1,4.349999875E-2,3.854999840E-1,7.459999621E-2
1.343031250E1,2.074999958E-1,3.546999991E-1,1.272999942E-1
1.344023906E1,2.058999985E-1,2.671999931E-1,1.154999956E-1
1.345016562E1,1.400000006E-1,2.920999825E-1,1.538999975E-1
1.346009219E1,5.819999799E-2,2.642000020E-1,1.589999907E-2
1.347001875E1,-6.799999624E-3,2.565000057E-1,4.490000010E-2
1.347994531E1,-3.810000047E-2,2.502000034E-1,1.138999984E-1
1.348987031E1,3.000000026E-3,2.435999960E-1,8.850000054E-2
1.349979688E1,1.173999980E-1,2.830999792E-1,6.650000066E-2
1.350972344E1,1.162000000E-1,2.460999936E-1,9.699999355E-3
1.351965000E1,-2.070000023E-2,2.370999902E-1,-6.399999838E-3
1.352957656E1,-3.610000014E-2,1.867000014E-1,4.999999888E-3
1.353950313E1,-4.369999841E-2,2.856000066E-1,1.062999964E-1
1.354942969E1,-5.609999970E-2,2.838000059E-1,-7.899999619E-3
1.355935469E1,-1.262999922E-1,2.802000046E-1,-9.640000015E-2
1.356928125E1,-1.174999997E-1,2.842999995E-1,-1.557999998E-1
1.357920781E1,-7.149999589E-2,2.682999969E-1,-1.380999982E-1
1.358913438E1,2.009999938E-2,2.597000003E-1,-8.639999479E-2
1.359906094E1,5.139999837E-2,1.686999947E-1,7.930000126E-2
1.360898750E1,8.559999615E-2,1.754999906E-1,-1.500000013E-3
1.361891406E1,6.279999763E-2,2.452999949E-1,1.004000008E-1
1.362883906E1,2.419999987E-2,2.474999875E-1,7.750000060E-2
1.363876563E1,3.249999881E-2,2.829999924E-1,1.759999990E-1
1.364869219E1,1.020999998E-1,2.891999781E-1,2.569999993E-1
1.365861875E1,8.329999447E-2,2.592000067E-1,1.792999953E-1
1.366854531E1,1.399999950E-3,2.859999835E-1,1.231999993E-1
1.367847188E1,-5.699999630E-3,3.429999948E-1,9.239999950E-2
1.368839688E1,-8.819999546E-2,4.065999985E-1,8.679999411E-2
1.369832344E1,-1.485999972E-1,3.379999995E-1,3.639999777E-2
1.370825000E1,-7.569999993E-2,3.962000012E-1,2.180000022E-2
1.371817656E1,-5.339999869E-2,3.823999763E-1,-8.529999852E-2
1.372810312E1,-1.062999964E-1,2.870000005E-1,-1.641999930E-1
1.373802969E1,-2.859999985E-2,3.283999860E-1,-1.002999991E-1
1.374795469E1,1.055999994E-1,3.019999862E-1,-3.649999946E-2
1.375788125E1,7.299999893E-2,2.574999928E-1,2.749999985E-2
1.376780781E1,9.749999642E-2,2.657999992E-1,7.800000161E-2
1.377773438E1,5.169999972E-2,2.890999913E-1,1.603000015E-1
1.378766094E1,-1.999999949E-4,3.648999929E-1,2.364999950E-1
1.379758750E1,5.599999800E-3,3.713999987E-1,1.542000026E-1
1.380751406E1,-2.559999935E-2,4.070999920E-1,1.149000004E-1
1.381743906E1,-2.199999988E-3,4.114999771E-1,3.350000083E-2
1.382736562E1,-4.600000009E-2,3.732999861E-1,6.199999712E-3
1.383729063E1,2.070000023E-2,3.815999925E-1,4.669999704E-2
1.384721719E1,-1.879999973E-2,3.510999978E-1,3.559999913E-2
1.385714375E1,2.449999936E-2,4.059999883E-1,-3.269999847E-2
1.386707031E1,3.059999831E-2,2.872000039E-1,2.449999936E-2
1.387699844E1,7.869999856E-2,2.268999964E-1,-3.099999856E-3
1.388692344E1,1.879999936E-1,1.876999885E-1,7.629999518E-2
1.389684844E1,2.799999900E-2,2.660999894E-1,6.839999557E-2
1.390677500E1,-7.400000095E-2,3.064000010E-1,1.129999943E-2
1.391670156E1,-1.547999978E-1,3.607999980E-1,-1.017999947E-1
1.392662812E1,-2.881999910E-1,3.574999869E-1,-5.829999968E-2
1.393655469E1,-2.412000000E-1,4.502999783E-1,-4.809999838E-2
1.394648125E1,-1.981000006E-1,3.590999842E-1,1.129999943E-2
1.395640781E1,-2.829999849E-2,3.960999846E-1,2.589999884E-2
1.396633438E1,7.809999585E-2,3.886999786E-1,1.099999994E-1
1.397626094E1,5.079999939E-2,3.513000011E-1,1.305999905E-1
1.398618750E1,3.810000047E-2,4.210999906E-1,5.609999970E-2
1.399611406E1,1.149000004E-1,3.641999960E-1,1.241999939E-1
1.400603906E1,1.547999978E-1,3.210999966E-1,1.840000004E-1
1.401596563E1,2.777999938E-1,2.784000039E-1,2.150999904E-1
1.402589219E1,2.460999936E-1,2.963999808E-1,2.301999927E-1
1.403581875E1,6.049999967E-2,3.193999827E-1,2.097999901E-1
1.404574531E1,-1.564999968E-1,4.357999861E-1,1.040999964E-1
1.405567188E1,-2.357999980E-1,4.906999767E-1,-1.657999903E-1
1.406559688E1,-1.835999936E-1,4.407999814E-1,-2.522000074E-1
1.407552344E1,-1.305999905E-1,4.283999801E-1,-1.990999877E-1
1.408545000E1,-5.119999871E-2,3.757999837E-1,-1.268000007E-1
1.409537656E1,-9.989999980E-2,3.238999844E-1,-1.070000008E-1
1.410530312E1,8.200000040E-3,2.990999818E-1,-6.499999668E-3
1.411522813E1,7.739999890E-2,3.393999934E-1,1.673000008E-1
1.412515469E1,1.317999959E-1,3.116999865E-1,1.545999944E-1
1.413508125E1,1.313000023E-1,2.947999835E-1,1.248999983E-1
1.414500781E1,9.200000204E-3,3.102999926E-1,1.092999950E-1
1.415493438E1,3.199999779E-2,2.554000020E-1,1.539999992E-2
1.416485938E1,1.109999977E-2,3.139999807E-1,1.640000008E-2
1.417478750E1,-5.579999834E-2,2.658999860E-1,5.839999765E-2
1.418471250E1,2.600000007E-3,2.755999863E-1,2.039999887E-2
1.419463906E1,-3.449999914E-2,2.338999957E-1,-2.740000002E-2
1.420456562E1,-6.059999764E-2,2.509999871E-1,-6.359999627E-2
1.421449219E1,-7.699999958E-2,2.487999946E-1,-4.219999909E-2
1.422441719E1,-2.819999866E-2,2.453999966E-1,-1.030000020E-2
1.423434375E1,6.599999964E-3,2.734999955E-1,6.189999729E-2
1.424427031E1,2.979999967E-2,3.123999834E-1,5.579999834E-2
1.425419688E1,8.299999870E-3,2.171999961E-1,1.171000004E-1
1.426412500E1,1.152999997E-1,2.402999997E-1,1.220999956E-1
1.427405000E1,1.064999998E-1,2.910999954E-1,2.559999935E-2
1.428397656E1,7.999999821E-2,2.631999850E-1,4.140000045E-2
1.429390313E1,5.549999699E-2,3.055999875E-1,7.339999825E-2
1.430382969E1,2.529999986E-2,2.807999849E-1,1.841000021E-1
1.431375625E1,2.190000005E-2,3.219999969E-1,1.002999991E-1
1.432368125E1,3.019999899E-2,3.334999979E-1,-1.009999961E-2
1.433360781E1,-1.869999990E-2,3.404999971E-1,-1.349999905E-1
1.434353438E1,-1.679999940E-2,3.452000022E-1,-1.419000030E-1
1.435346094E1,-7.609999925E-2,3.877999783E-1,9.200000204E-3
1.436338594E1,-5.519999936E-2,3.919999897E-1,8.799999952E-3
1.437331250E1,-7.809999585E-2,3.886999786E-1,3.849999979E-2
1.438323906E1,-4.100000020E-3,3.680000007E-1,-9.999999747E-5
1.439316563E1,1.090000011E-2,3.312000036E-1,9.510000050E-2
1.440309219E1,3.469999880E-2,3.436999917E-1,1.777999997E-1
1.441301875E1,-2.600000007E-3,4.773999751E-1,2.412999868E-1
1.442294531E1,-9.129999578E-2,5.245000124E-1,2.439000010E-1
1.443287188E1,-1.500999928E-1,4.751999974E-1,1.601999998E-1
1.444279688E1,-1.744000018E-1,4.479999840E-1,-5.810000002E-2
1.445272344E1,-1.466999948E-1,5.223999619E-1,-1.761000007E-1
1.446265000E1,-1.028999984E-1,5.090999603E-1,-3.879999742E-2
1.447257656E1,-4.930000007E-2,4.160999954E-1,1.030000020E-2
1.448250313E1,7.059999555E-2,3.923999965E-1,1.143999994E-1
1.449242969E1,1.294000000E-1,3.413999975E-1,5.489999801E-2
1.450235469E1,1.718999892E-1,3.034999967E-1,3.170000017E-2
1.451228125E1,9.629999846E-2,3.321000040E-1,1.989999972E-2
1.452220781E1,5.759999901E-2,2.154999971E-1,7.289999723E-2
1.453213438E1,9.279999882E-2,2.044999897E-1,3.079999983E-2
1.454206094E1,1.277000010E-1,2.047999948E-1,1.789999940E-2
1.455198750E1,8.529999852E-2,1.876000017E-1,8.649999648E-2
1.456191406E1,9.200000204E-3,1.731999964E-1,1.428000033E-1
1.457183906E1,-6.099999696E-2,2.237999886E-1,6.289999932E-2
1.458176563E1,-9.999999747E-5,2.043000013E-1,-4.509999976E-2
1.459169219E1,1.599999960E-3,2.495999932E-1,-1.727000028E-1
1.460161875E1,-1.239999942E-2,1.757999957E-1,-1.116999984E-1
1.461154531E1,-2.239999920E-2,2.182999998E-1,-2.599999867E-2
1.462147188E1,-2.429999970E-2,2.719999850E-1,1.300000004E-3
1.463139844E1,8.169999719E-2,1.695999950E-1,-4.529999942E-2
1.464132344E1,8.399999887E-2,2.078999877E-1,-3.429999948E-2
1.465125000E1,1.379999984E-2,2.254999876E-1,-3.350000083E-2
1.466117656E1,-9.300000034E-3,2.534999847E-1,3.159999847E-2
1.467110312E1,-7.009999454E-2,2.236000001E-1,6.599999964E-2
1.468102969E1,-6.459999830E-2,2.547999918E-1,1.036999971E-1
1.469095625E1,-1.068999991E-1,2.563999891E-1,6.599999964E-2
1.470088125E1,6.399999838E-3,2.793999910E-1,9.179999679E-2
1.471080781E1,-2.749999985E-2,3.134999871E-1,1.553999931E-1
1.472073438E1,-4.580000043E-2,3.972999752E-1,1.667999923E-1
1.473066094E1,-7.629999518E-2,4.356999993E-1,2.978000045E-1
1.474058750E1,-8.109999448E-2,4.774999917E-1,2.999999821E-1
1.475051406E1,2.369999886E-2,4.373999834E-1,1.268000007E-1
1.476044063E1,6.899999827E-2,3.876999915E-1,-1.429999918E-1
1.477036719E1,8.159999549E-2,3.255999982E-1,-1.785999984E-1
1.478029219E1,1.010999978E-1,2.475999892E-1,-1.583999991E-1
1.479021875E1,8.909999579E-2,2.547999918E-1,-1.175999939E-1
1.480014531E1,-1.620000042E-2,2.842999995E-1,-5.150000006E-2
1.481007188E1,-7.930000126E-2,2.895999849E-1,-4.859999940E-2
1.481999844E1,-1.467999965E-1,2.761999965E-1,-2.459999919E-2
1.482992500E1,-8.119999617E-2,3.928000033E-1,7.459999621E-2
1.483985000E1,-3.769999743E-2,4.714999795E-1,8.329999447E-2
1.484977656E1,-3.499999875E-3,4.139999747E-1,9.250000119E-2
1.485970313E1,-8.299999870E-3,4.166999757E-1,1.062999964E-1
1.486962969E1,3.299999982E-3,4.276999831E-1,1.589999907E-2
1.487955625E1,1.045999974E-1,3.289999962E-1,3.999999899E-4
1.488948281E1,1.100999936E-1,3.098999858E-1,5.219999701E-2
1.489940938E1,1.175999939E-1,2.595999837E-1,-1.439999975E-2
1.490933438E1,4.820000008E-2,1.704999954E-1,4.279999807E-2
1.491926094E1,4.329999909E-2,1.894999892E-1,-2.699999884E-2
1.492918750E1,4.759999737E-2,1.900999993E-1,1.919999905E-2
1.493911406E1,-1.300000004E-3,2.310999930E-1,1.396999955E-1
1.494904062E1,-7.220000029E-2,3.131999969E-1,1.340999901E-1
1.495896563E1,-9.200000018E-2,3.046999872E-1,7.069999725E-2
1.496889375E1,-1.519999951E-1,3.249999881E-1,-4.569999874E-2
1.497881875E1,-8.280000091E-2,2.861999869E-1,-2.989999950E-2
1.498874531E1,-6.459999830E-2,2.741999924E-1,-8.299999870E-3
1.499867188E1,-9.730000049E-2,2.534999847E-1,6.430000067E-2
1.500859844E1,-2.749999985E-2,2.728999853E-1,6.939999759E-2
1.501852500E1,-4.949999973E-2,2.842999995E-1,3.769999743E-2
1.502845156E1,-2.029999904E-2,2.238999903E-1,-8.179999888E-2
1.503837656E1,-4.629999772E-2,2.319999933E-1,-7.159999758E-2
1.504830312E1,-3.079999983E-2,2.784999907E-1,-7.199999876E-3
1.505822969E1,1.008000001E-1,2.969999909E-1,8.909999579E-2
1.506815625E1,4.580000043E-2,4.235000014E-1,9.569999576E-2
1.507808281E1,-2.369999886E-2,4.950999916E-1,1.261000037E-1
1.508800938E1,-2.589999884E-2,4.293999970E-1,8.649999648E-2
1.509793594E1,3.499999875E-3,5.189999938E-1,4.140000045E-2
1.510786094E1,1.234999970E-1,4.614000022E-1,9.659999609E-2
1.511778750E1,1.387999952E-1,4.447000027E-1,1.358000040E-1
1.512771406E1,1.634999961E-1,3.871999979E-1,9.089999646E-2
1.513764063E1,1.490999907E-1,3.407000005E-1,8.989999443E-2
1.514756719E1,6.109999865E-2,3.243999779E-1,4.529999942E-2
1.515749375E1,1.269999985E-2,2.653999925E-1,-3.810000047E-2
1.516742031E1,-2.259999886E-2,2.329999954E-1,-6.019999832E-2
1.517734531E1,-4.479999840E-2,2.876999974E-1,-8.359999955E-2
1.518727188E1,-5.749999732E-2,2.642000020E-1,-1.189999934E-2
1.519719844E1,-6.830000132E-2,2.417999953E-1,4.050000012E-2
1.520712500E1,-5.909999833E-2,3.479999900E-1,3.419999778E-2
1.521705156E1,-1.369999945E-1,3.369999826E-1,1.459999941E-2
1.522697812E1,-5.359999835E-2,2.683999836E-1,-5.099999718E-3
1.523690313E1,-2.699999884E-2,2.865000069E-1,-2.859999985E-2
1.524682969E1,4.719999805E-2,3.053999841E-1,5.669999868E-2
1.525675625E1,8.859999478E-2,3.754999936E-1,1.305000037E-1
1.526668281E1,-1.480000000E-2,3.107999861E-1,1.806000024E-1
1.527660938E1,-5.219999701E-2,3.524999917E-1,6.960000098E-2
1.528653594E1,-1.079999935E-2,3.741999865E-1,-8.100000210E-3
1.529646250E1,5.020000041E-2,3.652999997E-1,3.099999856E-3
1.530638750E1,1.249999925E-2,3.270999789E-1,7.279999554E-2
1.531631406E1,3.059999831E-2,2.759999931E-1,4.160000011E-2
1.532624062E1,-1.200000010E-2,2.366999984E-1,3.309999779E-2
1.533616719E1,7.899999619E-3,2.479999959E-1,3.869999945E-2
1.534609375E1,1.063999981E-1,2.089999914E-1,-1.179999951E-2
1.535602031E1,4.609999806E-2,2.440999895E-1,-9.149999917E-2
1.536594531E1,5.439999700E-2,2.701999843E-1,-6.909999996E-2
1.537587188E1,-6.700000167E-2,2.184000015E-1,-2.309999987E-2
1.538579844E1,-4.140000045E-2,2.658999860E-1,7.099999487E-2
1.539572500E1,-6.949999928E-2,3.215000033E-1,-1.579999924E-2
1.540565156E1,-4.649999738E-2,3.392999768E-1,-4.769999906E-2
1.541557813E1,-7.329999655E-2,3.781999946E-1,1.519999932E-2
1.542550312E1,-7.809999585E-2,3.782999814E-1,6.350000203E-2
1.543542969E1,-2.419999987E-2,3.581999838E-1,1.004000008E-1
1.544535625E1,-2.669999935E-2,2.906000018E-1,5.119999871E-2
1.545528281E1,2.969999984E-2,3.625999987E-1,9.629999846E-2
1.546520938E1,9.529999644E-2,3.269000053E-1,1.281999946E-1
1.547513594E1,1.776999980E-1,3.200999796E-1,1.163999960E-1
1.548506094E1,4.930000007E-2,3.427999914E-1,1.072999984E-1
1.549498750E1,-4.010000080E-2,3.251000047E-1,-7.100000046E-3
1.550491406E1,-4.360000044E-2,2.839999795E-1,-9.809999913E-2
1.551484063E1,-7.939999551E-2,2.692999840E-1,-1.307999939E-1
1.552476719E1,-5.529999733E-2,3.032999933E-1,-8.009999990E-2
1.553469219E1,-9.369999915E-2,2.974999845E-1,-5.759999901E-2
1.554461875E1,-3.539999947E-2,2.759000063E-1,7.229999453E-2
1.555454531E1,-6.599999964E-3,3.260999918E-1,1.306999922E-1
1.556447188E1,5.009999871E-2,3.482999802E-1,1.216999963E-1
1.557439844E1,1.233999953E-1,2.926000059E-1,1.071999967E-1
1.558432344E1,8.349999785E-2,3.076999784E-1,1.212999970E-1
1.559425156E1,2.749999985E-2,3.387999833E-1,1.709999889E-2
1.560417812E1,-9.989999980E-2,3.886999786E-1,3.819999844E-2
1.561410313E1,-8.850000054E-2,3.702999949E-1,5.649999902E-2
1.562402969E1,-2.669999935E-2,4.289000034E-1,1.989999972E-2
1.563395625E1,3.799999831E-3,3.955999911E-1,-6.039999798E-2
1.564388281E1,4.259999841E-2,3.657999933E-1,2.229999937E-2
1.565380781E1,1.159999985E-2,4.145999849E-1,6.399999559E-2
1.566373438E1,-3.909999877E-2,3.152000010E-1,4.669999704E-2
1.567366094E1,8.529999852E-2,2.947999835E-1,3.390000015E-2
1.568358750E1,8.029999584E-2,2.070999891E-1,-3.029999882E-2
1.569351406E1,6.920000166E-2,2.237999886E-1,-9.899999946E-2
1.570344062E1,-3.099999856E-3,2.016000003E-1,-2.359999903E-2
1.571336719E1,-1.287000030E-1,2.186999917E-1,-1.630000025E-2
1.572329219E1,-1.296000034E-1,3.568999767E-1,1.597999930E-1
1.573321875E1,-1.587999910E-1,4.008999765E-1,2.593999803E-1
1.574314531E1,-2.719999850E-2,4.086999893E-1,2.170999944E-1
1.575307188E1,-1.909999922E-2,3.559999764E-1,1.068999991E-1
1.576299844E1,-8.549999446E-2,3.504000008E-1,-4.369999841E-2
1.577292500E1,-9.250000119E-2,3.488000035E-1,-1.316999942E-1
1.578285156E1,-1.237999946E-1,2.067999989E-1,-1.031999961E-1
1.579277656E1,-2.999999851E-4,2.976000011E-1,-1.342999935E-1
1.580270312E1,1.099999994E-2,3.201999962E-1,-1.062999964E-1
1.581262969E1,-9.999999776E-3,2.358999997E-1,-1.162999943E-1
1.582255625E1,1.794999987E-1,3.213999867E-1,6.729999930E-2
1.583248281E1,9.030000120E-2,2.895999849E-1,8.219999820E-2
1.584240938E1,1.464999914E-1,3.218999803E-1,2.334999889E-1
1.585233594E1,1.324999928E-1,4.368000031E-1,3.154999912E-1
1.586226094E1,3.240000084E-2,4.483999908E-1,3.052999973E-1
1.587218750E1,4.109999910E-2,5.665999651E-1,2.523999810E-1
1.588211406E1,-3.449999914E-2,5.421999693E-1,2.886999846E-1
1.589204063E1,-7.050000131E-2,5.699999928E-1,1.098999977E-1
1.590196719E1,-8.789999783E-2,5.676999688E-1,-1.378999949E-1
1.591189375E1,-1.195999980E-1,6.293999553E-1,-1.712999940E-1
1.592181875E1,-1.722999960E-1,5.327000022E-1,-1.775999963E-1
1.593174531E1,-1.105000004E-1,5.899999738E-1,-8.150000125E-2
1.594167188E1,5.959999934E-2,4.940999746E-1,3.219999745E-2
1.595159844E1,1.908999979E-1,3.940999806E-1,9.510000050E-2
1.596152500E1,2.398999929E-1,2.675999999E-1,1.363999993E-1
1.597145156E1,1.576000005E-1,2.017000020E-1,1.039999947E-1
1.598137812E1,2.859999985E-2,9.659999609E-2,1.040000003E-2
1.599130313E1,-1.222999990E-1,1.164999977E-1,-6.049999967E-2
1.600122969E1,-2.942999899E-1,2.439999953E-2,-1.636999995E-1
1.601115625E1,-2.245000005E-1,6.709999591E-2,-1.847999990E-1
1.602108281E1,-2.052999884E-1,7.009999454E-2,-2.020999938E-1
1.603100938E1,-1.255999953E-1,1.228000000E-1,-2.240999937E-1
1.604093594E1,-6.920000166E-2,9.959999472E-2,-1.011999995E-1
1.605086250E1,-9.699999355E-3,1.556999981E-1,-2.719999850E-2
1.606078750E1,7.689999789E-2,2.423999906E-1,6.499999762E-2
1.607071406E1,2.310999930E-1,2.900999784E-1,1.465999931E-1
1.608064062E1,2.295999974E-1,2.827000022E-1,2.307999879E-1
1.609056719E1,1.384000033E-1,3.068999946E-1,2.540000081E-1
1.610049375E1,9.709999710E-2,3.041000068E-1,2.360999882E-1
1.611042031E1,7.369999588E-2,2.926000059E-1,1.833999902E-1
1.612034688E1,1.223999932E-1,3.594999909E-1,1.345999986E-1
1.613027188E1,9.619999677E-2,3.267999887E-1,1.257999986E-1
1.614019844E1,8.199999481E-2,3.134999871E-1,1.432999969E-1
1.615012500E1,6.159999967E-2,2.660000026E-1,-1.269999985E-2
1.616005156E1,3.889999911E-2,2.552999854E-1,-6.949999928E-2
1.616997656E1,-6.499999668E-3,2.422999889E-1,-1.089999974E-1
1.617990469E1,5.219999701E-2,1.992999911E-1,-6.239999831E-2
1.618983125E1,-6.399999559E-2,2.529999912E-1,2.109999955E-2
1.619975625E1,-2.062999904E-1,3.395999968E-1,8.729999512E-2
1.620968281E1,-2.375999987E-1,2.678000033E-1,-4.629999772E-2
1.621960938E1,-2.398999929E-1,3.428999782E-1,-1.136999950E-1
1.622953594E1,-1.708000004E-1,3.401999772E-1,-9.629999846E-2
1.623946250E1,-1.268000007E-1,2.888999879E-1,-5.379999802E-2
1.624938906E1,-3.189999983E-2,3.044999838E-1,-2.499999851E-2
1.625931562E1,-4.719999805E-2,3.425999880E-1,2.850000001E-2
1.626924063E1,-4.609999806E-2,3.544999957E-1,1.197999939E-1
1.627916719E1,-2.549999952E-2,4.151999950E-1,9.250000119E-2
1.628909375E1,7.819999754E-2,4.341999888E-1,1.269999985E-2
1.629902031E1,1.911999881E-1,3.941999972E-1,-3.199999919E-3
1.630894688E1,1.543999910E-1,2.974999845E-1,1.128999963E-1
1.631887344E1,1.414999962E-1,3.782999814E-1,2.307999879E-1
1.632879844E1,1.349999905E-1,3.825999796E-1,2.364999950E-1
1.633872500E1,1.458999962E-1,3.111000061E-1,1.585000008E-1
1.634865156E1,1.301999986E-1,3.583999872E-1,9.799999744E-2
1.635857812E1,7.129999995E-2,3.421999812E-1,-6.000000052E-3
1.636850469E1,-2.989999950E-2,3.328999877E-1,1.200000010E-2
1.637843125E1,-1.009999961E-1,3.585000038E-1,-7.279999554E-2
1.638835625E1,-1.077999994E-1,4.134999812E-1,-2.309999987E-2
1.639828281E1,-6.799999624E-2,4.004999995E-1,3.150000051E-2
1.640820938E1,-9.349999577E-2,3.680000007E-1,-2.969999984E-2
1.641813594E1,-1.428000033E-1,3.721999824E-1,-1.017999947E-1
1.642806094E1,-8.359999955E-2,3.989999890E-1,-5.299999937E-2
1.643798906E1,-4.339999706E-2,2.994999886E-1,2.449999936E-2
1.644791406E1,2.679999918E-2,2.391999960E-1,7.199999690E-2
1.645784062E1,1.118000001E-1,2.577999830E-1,4.230000079E-2
1.646776719E1,1.093999967E-1,2.754999995E-1,-9.910000116E-2
1.647769375E1,3.189999983E-2,2.243999988E-1,-9.699999541E-2
1.648762031E1,-3.409999982E-2,2.133999914E-1,3.249999881E-2
1.649754688E1,-3.390000015E-2,2.701999843E-1,3.629999980E-2
1.650747344E1,-5.999999703E-4,2.096000016E-1,1.929999888E-2
1.651739844E1,5.810000002E-2,2.312999964E-1,8.219999820E-2
1.652732500E1,1.037999988E-1,3.140999973E-1,1.500999928E-1
1.653725156E1,7.129999995E-2,3.095999956E-1,2.498999983E-1
1.654717813E1,-2.219999954E-2,4.038999975E-1,1.898999959E-1
1.655710469E1,1.589999907E-2,3.811999857E-1,1.074999943E-1
1.656703125E1,-3.289999813E-2,3.655999899E-1,2.149999887E-2
1.657695781E1,-6.709999591E-2,4.350000024E-1,-2.489999868E-2
1.658688281E1,4.900000058E-3,3.929999769E-1,-1.090000011E-2
1.659680938E1,-4.439999908E-2,4.296000004E-1,3.799999831E-3
1.660673594E1,5.539999902E-2,3.780999780E-1,1.640000008E-2
1.661666250E1,2.999999851E-4,3.073999882E-1,-3.199999919E-3
1.662658906E1,-3.879999742E-2,2.766000032E-1,-8.899999782E-3
1.663651562E1,-1.144999936E-1,3.525999784E-1,-3.409999982E-2
1.664644219E1,-1.172999963E-1,3.116999865E-1,-5.699999630E-3
1.665636719E1,-4.800000042E-2,3.980999887E-1,5.699999630E-3
1.666629375E1,3.570000082E-2,3.088999987E-1,2.699999884E-2
1.667622031E1,1.064999998E-1,2.967000008E-1,-3.619999811E-2
1.668614688E1,7.809999585E-2,2.967000008E-1,4.919999838E-2
1.669607344E1,5.189999938E-2,2.466999888E-1,8.499999531E-3
1.670600000E1,7.669999450E-2,1.764999926E-1,-4.299999774E-2
1.671592500E1,1.327999979E-1,1.044999957E-1,-1.105000004E-1
1.672585156E1,3.289999813E-2,1.230999976E-1,-4.710000008E-2
1.673577812E1,-3.579999879E-2,1.215000004E-1,3.189999983E-2
1.674570313E1,-9.079999477E-2,2.284999937E-1,6.099999696E-2
1.675562969E1,-1.835999936E-1,2.172999978E-1,-1.299999934E-2
1.676555781E1,-1.573999971E-1,2.680999935E-1,5.289999768E-2
1.677548281E1,-1.296999902E-1,3.288999796E-1,7.259999961E-2
1.678540938E1,-5.109999701E-2,3.210999966E-1,9.609999508E-2
1.679533594E1,-6.089999899E-2,3.524999917E-1,8.299999684E-2
1.680526250E1,2.439999953E-2,4.032000005E-1,6.399999838E-3
1.681518906E1,1.409000009E-1,3.544999957E-1,3.570000082E-2
1.682511563E1,1.503999978E-1,3.546999991E-1,6.390000135E-2
1.683504062E1,1.859999895E-1,3.559999764E-1,1.319999993E-1
1.684496719E1,8.859999478E-2,4.476999938E-1,1.923999935E-1
1.685489375E1,1.989999972E-2,3.558999896E-1,1.805000007E-1
1.686482031E1,-7.999999798E-4,3.097999990E-1,1.589999907E-2
1.687474688E1,3.700000048E-2,3.118000031E-1,-1.970000006E-2
1.688467344E1,1.919999905E-2,3.203999996E-1,-5.859999731E-2
1.689459844E1,-8.749999851E-2,3.664999902E-1,-2.239999920E-2
1.690452500E1,-6.260000169E-2,3.519999981E-1,-1.659999974E-2
1.691445156E1,-1.422999948E-1,3.596999943E-1,3.199999919E-3
1.692437812E1,-9.299999475E-2,3.779000044E-1,2.759999968E-2
1.693430469E1,-1.030000001E-1,3.562999964E-1,-5.489999801E-2
1.694423125E1,-2.139999904E-2,3.339999914E-1,-5.269999802E-2
1.695415625E1,4.259999841E-2,3.698999882E-1,-9.119999409E-2
1.696408281E1,9.839999676E-2,3.391000032E-1,5.889999866E-2
1.697400938E1,1.233999953E-1,2.132999897E-1,2.219999880E-1
1.698393594E1,7.589999586E-2,2.345999926E-1,8.339999616E-2
1.699386250E1,8.709999919E-2,2.364999950E-1,3.339999914E-2
1.700378750E1,3.299999982E-2,1.920999885E-1,4.349999875E-2
1.701371406E1,-4.930000007E-2,2.730000019E-1,3.889999911E-2
1.702364063E1,-3.370000049E-2,2.703000009E-1,-2.199999988E-3
1.703356719E1,4.289999977E-2,1.717000008E-1,-1.549999975E-2
1.704349375E1,-2.799999900E-2,2.506999969E-1,2.599999867E-2
1.705342031E1,-3.819999844E-2,2.604999840E-1,5.480000004E-2
1.706334688E1,-9.759999812E-2,1.826999933E-1,8.669999987E-2
1.707327188E1,-9.229999781E-2,2.622999847E-1,3.590000048E-2
1.708319844E1,-8.179999888E-2,2.633999884E-1,6.599999964E-3
1.709312500E1,-1.769999973E-2,2.527999878E-1,-4.270000011E-2
1.710305156E1,-4.580000043E-2,2.303999960E-1,-9.919999540E-2
1.711297812E1,1.649999991E-2,3.152000010E-1,-4.109999910E-2
1.712290469E1,-3.879999742E-2,3.033999801E-1,1.179999951E-2
1.713283125E1,-1.730000041E-2,2.824999988E-1,4.710000008E-2
1.714275625E1,1.539999992E-2,3.901999891E-1,6.920000166E-2
1.715268281E1,1.261000037E-1,3.822000027E-1,1.022999957E-1
1.716260938E1,1.330000013E-1,3.655000031E-1,1.262999922E-1
1.717253594E1,1.033999994E-1,3.093999922E-1,1.041999981E-1
1.718246250E1,9.749999642E-2,2.733999789E-1,9.149999917E-2
1.719238906E1,4.809999838E-2,3.167999983E-1,9.339999408E-2
1.720231562E1,3.399999812E-3,3.283999860E-1,2.799999900E-2
1.721224062E1,-3.570000082E-2,3.671000004E-1,-1.539999992E-2
1.722216719E1,-8.200000040E-3,3.276000023E-1,1.589999907E-2
1.723209375E1,-2.419999987E-2,3.745999932E-1,-2.400000021E-2
1.724202031E1,-1.079999935E-2,4.034000039E-1,8.919999748E-2
1.725194688E1,4.699999932E-3,3.656999767E-1,1.319999993E-1
1.726187344E1,-1.299999934E-2,3.375000060E-1,4.169999808E-2
1.727179844E1,-1.329999976E-2,3.567999899E-1,4.999999888E-3
1.728172500E1,-4.910000041E-2,3.265999854E-1,-7.669999450E-2
1.729165156E1,-3.590000048E-2,3.434000015E-1,-4.969999939E-2
1.730157813E1,-2.869999968E-2,3.012999892E-1,2.809999883E-2
1.731150469E1,-4.710000008E-2,3.700000048E-1,1.151999980E-1
1.732143125E1,-1.388999969E-1,4.079999924E-1,1.179999951E-2
1.733135781E1,-8.100000210E-3,4.377999902E-1,1.819999889E-2
1.734128438E1,2.080000006E-2,3.693999946E-1,-2.699999837E-3
1.735120938E1,6.780000031E-2,4.098999798E-1,1.018999964E-1
1.736113594E1,6.619999558E-2,4.287000000E-1,8.899999410E-2
1.737106250E1,1.315999925E-1,3.324999809E-1,7.869999856E-2
1.738098906E1,8.410000056E-2,3.838000000E-1,7.669999450E-2
1.739091562E1,2.639999986E-2,4.069999754E-1,9.269999713E-2
1.740084062E1,-8.739999682E-2,4.091999829E-1,1.209999993E-1
1.741076719E1,-1.450999975E-1,4.687999785E-1,3.390000015E-2
1.742069375E1,-1.237000003E-1,4.292999804E-1,-3.499999875E-3
1.743062031E1,-4.309999943E-2,3.595999777E-1,-3.209999949E-2
1.744054531E1,6.390000135E-2,4.057999849E-1,-4.339999706E-2
1.745047344E1,1.077999994E-1,3.339999914E-1,1.620000042E-2
1.746039844E1,1.013999954E-1,3.235999942E-1,7.009999454E-2
1.747032656E1,-1.129999943E-2,3.060999811E-1,1.472000033E-1
1.748025156E1,-5.999999866E-2,3.181000054E-1,9.629999846E-2
1.749017812E1,-5.249999836E-2,3.507999778E-1,7.490000129E-2
1.750010469E1,-6.509999931E-2,3.231000006E-1,1.049999986E-2
1.751003125E1,-3.280000016E-2,2.052000016E-1,-4.529999942E-2
1.751995625E1,-1.730000041E-2,1.333999932E-1,-6.399999559E-2
1.752988281E1,-6.480000168E-2,2.383999974E-1,-4.519999772E-2
1.753980938E1,-4.329999909E-2,1.488000005E-1,3.849999979E-2
1.754973594E1,1.779999956E-2,1.171000004E-1,-2.679999918E-2
1.755966250E1,2.019999921E-2,-2.699999837E-3,-6.260000169E-2
1.756958906E1,3.790000081E-2,9.129999578E-2,-1.483999938E-1
1.757951563E1,-5.570000038E-2,6.709999591E-2,-1.657999903E-1
1.758944219E1,-8.299999684E-2,3.109999932E-2,-1.626999974E-1
1.759936875E1,-1.219999976E-2,4.409999773E-2,-1.995999962E-1
1.760929375E1,7.100000046E-3,7.759999484E-2,-1.577999890E-1
1.761922031E1,9.899999946E-2,1.911000013E-1,-1.158000007E-1
1.762914688E1,1.281999946E-1,2.872999907E-1,6.870000064E-2
1.763907344E1,9.709999710E-2,3.078999817E-1,2.387999892E-1
1.764900000E1,5.059999973E-2,4.678999782E-1,2.294999957E-1
1.765892656E1,-7.100000046E-3,5.730999708E-1,3.536999822E-1
1.766885313E1,-4.999999655E-4,6.344000101E-1,4.131000042E-1
1.767877812E1,3.139999881E-2,6.004999876E-1,4.299999774E-1
1.768870469E1,6.780000031E-2,6.445999742E-1,3.653999865E-1
1.769863125E1,4.529999942E-2,6.523000002E-1,3.032000065E-1
1.770855781E1,2.719999850E-2,7.141999602E-1,1.897999942E-1
1.771848438E1,-3.529999778E-2,6.442999840E-1,1.405999959E-1
1.772841094E1,-3.949999809E-2,7.160999775E-1,1.090999991E-1
1.773833594E1,6.899999920E-3,6.298999786E-1,1.046999991E-1
1.774826250E1,1.078999937E-1,5.432000160E-1,1.348000020E-1
1.775818906E1,5.099999905E-2,4.636999965E-1,1.439999975E-2
1.776811562E1,-1.559999958E-2,4.574999809E-1,-1.102999970E-1
1.777804219E1,-7.329999655E-2,3.780999780E-1,-2.408999950E-1
1.778796875E1,-8.039999753E-2,3.544999957E-1,-2.560999990E-1
1.779789531E1,-1.400000006E-1,2.100999951E-1,-2.567999959E-1
1.780782031E1,-9.860000014E-2,1.747999936E-1,-2.759000063E-1
1.781774688E1,-8.179999888E-2,1.332999915E-1,-2.301999927E-1
1.782767344E1,-4.690000042E-2,1.158000007E-1,-1.497000009E-1
1.783760000E1,4.749999940E-2,9.039999545E-2,-1.033999994E-1
1.784752500E1,4.779999703E-2,9.809999913E-2,8.339999616E-2
1.785745313E1,4.699999932E-3,1.480000019E-1,1.287999898E-1
1.786737969E1,-7.580000162E-2,1.291999966E-1,1.919999905E-2
1.787730469E1,-1.312000006E-1,1.882999986E-1,-5.810000002E-2
1.788723125E1,2.499999851E-2,2.396999896E-1,5.429999903E-2
1.789715781E1,1.307999939E-1,2.309999913E-1,1.054999977E-1
1.790708281E1,1.111999974E-1,3.197999895E-1,1.237999946E-1
1.791701094E1,2.699999884E-2,3.328000009E-1,1.653999984E-1
1.792693750E1,2.620000020E-2,4.163999856E-1,1.359999925E-1
1.793686250E1,6.859999895E-2,4.227999747E-1,2.381999940E-1
1.794678906E1,-7.899999619E-3,4.680999815E-1,1.942999959E-1
1.795671562E1,1.769999973E-2,5.042999983E-1,1.755999923E-1
1.796664219E1,1.860000007E-2,4.833000004E-1,2.356999964E-1
1.797656875E1,-2.239999920E-2,4.906999767E-1,1.327999979E-1
1.798649531E1,-1.300000004E-3,4.463999867E-1,1.331000030E-1
1.799642188E1,5.040000007E-2,4.294999838E-1,3.289999813E-2
1.800634688E1,7.869999856E-2,3.420999944E-1,-2.229999937E-2
1.801627344E1,6.149999797E-2,3.364999890E-1,-1.132999957E-1
1.802620000E1,6.049999967E-2,3.137999773E-1,-2.679999918E-2
1.803612656E1,3.170000017E-2,2.996999919E-1,-6.499999668E-3
1.804605312E1,-9.429999441E-2,3.344999850E-1,-2.769999951E-2
1.805597813E1,-1.050999984E-1,2.906000018E-1,-4.580000043E-2
1.806590469E1,-1.635999978E-1,3.181000054E-1,-3.079999983E-2
1.807583125E1,-9.259999543E-2,3.256999850E-1,1.979999989E-2
1.808575781E1,-1.759999990E-2,2.944999933E-1,2.899999917E-2
1.809568281E1,3.299999982E-2,3.034999967E-1,2.819999866E-2
1.810560938E1,2.889999934E-2,2.936999798E-1,1.860000007E-2
1.811553594E1,1.370000001E-2,3.325999975E-1,1.099999994E-2
1.812546250E1,-5.299999937E-2,3.398000002E-1,-6.019999832E-2
1.813538906E1,-3.749999776E-2,2.888000011E-1,-1.979999989E-2
1.814531563E1,3.109999932E-2,3.069999814E-1,1.489999983E-2
1.815524219E1,1.319999993E-1,2.157999873E-1,-5.219999701E-2
1.816516875E1,1.290999949E-1,2.439000010E-1,3.989999741E-2
1.817509375E1,1.146999970E-1,1.481999904E-1,1.119999960E-1
1.818502031E1,7.869999856E-2,2.104000002E-1,1.391000003E-1
1.819494688E1,-1.079999935E-2,2.339999974E-1,1.506000012E-1
1.820487344E1,-5.579999834E-2,2.786000073E-1,9.649999440E-2
1.821480000E1,-9.349999577E-2,2.818999887E-1,3.339999914E-2
1.822472500E1,-1.039999947E-1,3.316999972E-1,1.379999984E-2
1.823465312E1,-2.436999977E-1,2.131999880E-1,-1.989999972E-2
1.824457812E1,-1.692000031E-1,2.208999991E-1,-4.470000044E-2
1.825450469E1,-6.459999830E-2,2.181999981E-1,-6.079999730E-2
1.826443125E1,5.079999939E-2,1.571999937E-1,-3.469999880E-2
1.827435781E1,1.479000002E-1,6.749999523E-2,1.860000007E-2
1.828428438E1,9.429999441E-2,-1.169999968E-2,4.959999770E-2
1.829421094E1,1.288999915E-1,-1.083000004E-1,8.679999411E-2
1.830413594E1,1.215999946E-1,-1.853999943E-1,-1.709999889E-2
1.831406250E1,5.639999732E-2,-2.615000010E-1,-9.999999776E-3
1.832398906E1,-8.689999580E-2,-2.313999981E-1,-4.569999874E-2
1.833391562E1,-1.630999893E-1,-3.714999855E-1,-1.568999887E-1
1.834384219E1,-1.362999976E-1,-4.742999971E-1,-1.572999954E-1
1.835376875E1,-9.239999950E-2,-5.457000136E-1,-1.335999966E-1
1.836369375E1,-7.050000131E-2,-6.776999831E-1,-1.719999909E-1
1.837362031E1,4.039999843E-2,-7.688999772E-1,-7.299999893E-2
1.838354688E1,3.429999948E-2,-7.619999647E-1,-1.436000019E-1
1.839347344E1,-6.570000201E-2,-9.399999976E-1,-1.174999997E-1
1.840340000E1,5.759999901E-2,-1.012599945E0,-1.926999986E-1
1.841332656E1,3.899999894E-3,-1.074399948E0,-1.904999912E-1
1.842325156E1,2.175000012E-1,-1.256999969E0,-2.432999909E-1
1.843317812E1,6.639999896E-2,-1.216300011E0,1.308999956E-1
1.844310469E1,3.799999878E-2,-1.187500000E0,2.199999988E-2
1.845303125E1,4.120000079E-2,-1.283499956E0,1.429999992E-2
1.846295781E1,1.850000024E-2,-1.242200017E0,-6.839999557E-2
1.847288438E1,-2.630000003E-2,-1.218500018E0,-1.530999988E-1
1.848280938E1,6.300000008E-3,-1.281000018E0,-1.714999974E-1
1.849273594E1,6.459999830E-2,-1.321699977E0,-1.315999925E-1
1.850266250E1,-9.099999443E-3,-1.334599972E0,-1.711999923E-1
1.851258906E1,5.269999802E-2,-1.317099929E0,-1.262999922E-1
1.852251406E1,-9.699999355E-3,-1.369599938E0,-2.118999958E-1
1.853244219E1,5.350000039E-2,-1.282499909E0,-8.129999787E-2
1.854236875E1,9.200000018E-2,-1.285200000E0,-1.591999978E-1
1.855229531E1,1.287999898E-1,-1.356199980E0,-2.113000005E-1
1.856222031E1,6.830000132E-2,-1.310199976E0,-2.863999903E-1
1.857214688E1,-2.840000018E-2,-1.232999921E0,-2.388999909E-1
1.858207344E1,-1.287999898E-1,-1.077399969E0,-8.249999583E-2
1.859200000E1,-1.378999949E-1,-9.799000025E-1,8.859999478E-2
1.860192656E1,-7.809999585E-2,-8.039000034E-1,5.759999901E-2
1.861185312E1,5.020000041E-2,-6.764999628E-1,1.090000011E-2
1.862177969E1,7.279999554E-2,-4.897999763E-1,1.008000001E-1
1.863170469E1,6.780000031E-2,-3.711999953E-1,1.427000016E-1
1.864163125E1,4.360000044E-2,-2.322999984E-1,2.393999994E-1
1.865155781E1,6.700000167E-2,-6.209999695E-2,2.547000051E-1
1.866148438E1,6.049999967E-2,-5.719999969E-2,1.875000000E-1
1.867141094E1,4.659999907E-2,8.689999580E-2,2.678000033E-1
1.868133750E1,8.240000159E-2,2.225999981E-1,2.298000008E-1
1.869126406E1,-1.090000011E-2,2.872000039E-1,1.162000000E-1
1.870118906E1,1.860000007E-2,3.425999880E-1,1.592999995E-1
1.871111562E1,-1.040000003E-2,3.599999845E-1,1.824999899E-1
1.872104219E1,-9.559999406E-2,4.626999795E-1,1.775999963E-1
1.873096875E1,-1.004999951E-1,3.964000046E-1,9.579999745E-2
1.874089531E1,-4.809999838E-2,4.084999859E-1,-8.700000122E-3
1.875082188E1,-5.769999698E-2,2.811999917E-1,-1.589999907E-2
1.876074844E1,3.130000085E-2,2.579999864E-1,-8.249999583E-2
1.877067344E1,1.489999983E-2,2.037999928E-1,-9.969999641E-2
1.878060000E1,-4.639999941E-2,1.895999908E-1,-6.399999559E-2
1.879052656E1,-8.069999516E-2,2.056999952E-1,-5.689999834E-2
1.880045312E1,-1.679999977E-1,1.516000032E-1,-8.980000019E-2
1.881037969E1,-7.469999790E-2,1.771999896E-1,-9.189999849E-2
1.882030625E1,-7.360000163E-2,1.832000017E-1,-1.362999976E-1
1.883023125E1,-3.700000048E-2,1.508999914E-1,-5.319999903E-2
1.884015781E1,-9.860000014E-2,2.176999897E-1,-6.499999668E-3
1.885008438E1,-1.405999959E-1,1.867000014E-1,-4.979999736E-2
1.886001094E1,-8.679999411E-2,2.267999947E-1,7.829999924E-2
1.886993750E1,5.759999901E-2,2.696999907E-1,2.102999985E-1
1.887986406E1,1.591999978E-1,2.936999798E-1,2.592000067E-1
1.888978906E1,1.463999897E-1,2.588000000E-1,1.832999885E-1
1.889971563E1,8.109999448E-2,1.867999882E-1,1.171000004E-1
1.890964219E1,9.869999439E-2,2.412999868E-1,7.999999821E-2
1.891956875E1,1.415999979E-1,2.056999952E-1,7.180000097E-2
1.892949531E1,1.228999943E-1,1.291999966E-1,5.489999801E-2
1.893942188E1,4.099999741E-2,1.401000023E-1,-2.499999944E-3
1.894934844E1,2.979999967E-2,1.295000017E-1,-6.889999658E-2
1.895927344E1,-9.499999695E-3,7.859999686E-2,-7.669999450E-2
1.896920000E1,-1.579999924E-2,1.226999983E-1,-1.342999935E-1
1.897912656E1,-7.699999958E-2,8.959999681E-2,-1.979999989E-2
1.898905312E1,-3.579999879E-2,2.044999897E-1,4.999999655E-4
1.899897969E1,-8.129999787E-2,1.727000028E-1,-2.439999953E-2
1.900890625E1,-9.139999747E-2,2.988999784E-1,3.599999845E-2
1.901883125E1,-4.690000042E-2,3.208000064E-1,9.709999710E-2
1.902875781E1,-1.379999984E-2,3.605999947E-1,7.069999725E-2
1.903868438E1,2.879999951E-2,3.817999959E-1,9.219999611E-2
1.904861094E1,1.879999973E-2,5.203999877E-1,2.840000018E-2
1.905853750E1,4.109999910E-2,5.521000028E-1,1.008000001E-1
1.906846250E1,8.169999719E-2,6.618999839E-1,1.494999975E-1
1.907838906E1,1.789999940E-2,6.046999693E-1,8.439999819E-2
1.908831562E1,2.489999868E-2,6.844999790E-1,1.008000001E-1
1.909824219E1,1.040000003E-2,7.860999703E-1,1.340999901E-1
1.910816875E1,-3.639999777E-2,7.606999874E-1,2.040999979E-1
1.911809531E1,1.379999965E-1,8.227999806E-1,1.940999925E-1
1.912802188E1,9.149999917E-2,7.980999947E-1,1.643999964E-1
1.913794844E1,5.219999701E-2,8.118000031E-1,1.129999980E-1
1.914787500E1,-3.150000051E-2,8.047999740E-1,9.959999472E-2
1.915780000E1,-7.829999924E-2,7.037999630E-1,-4.160000011E-2
1.916772656E1,-9.899999946E-3,5.831999779E-1,-8.299999870E-3
1.917765313E1,-5.799999833E-2,4.682999849E-1,-1.441999972E-1
1.918757969E1,-4.699999839E-2,3.537999988E-1,-1.127999946E-1
1.919750469E1,-8.630000055E-2,4.626999795E-1,-1.501999944E-1
1.920743125E1,-2.146999985E-1,3.791999817E-1,-7.429999858E-2
1.921735781E1,-1.703999937E-1,3.058999777E-1,-2.249999903E-2
1.922728438E1,-7.169999927E-2,2.642000020E-1,-5.240000039E-2
1.923721094E1,-1.050999984E-1,2.635000050E-1,2.209999971E-2
1.924713594E1,-5.699999630E-3,2.951999903E-1,9.309999645E-2
1.925706406E1,2.300000004E-2,1.018999964E-1,1.724999994E-1
1.926699063E1,4.759999737E-2,1.533000022E-1,1.101999953E-1
1.927691719E1,4.270000011E-2,1.036999971E-1,-1.494999975E-1
1.928684219E1,8.139999956E-2,1.005999967E-1,-1.902000010E-1
1.929676875E1,1.004000008E-1,4.849999771E-2,-9.070000052E-2
1.930669531E1,6.560000032E-2,8.249999583E-2,-6.430000067E-2
1.931662188E1,1.013000011E-1,1.193000004E-1,1.132999957E-1
1.932654844E1,1.528999954E-1,1.120999977E-1,1.788999885E-1
1.933647500E1,9.459999949E-2,1.869999915E-1,2.422999889E-1
1.934640000E1,6.599999964E-2,2.316000015E-1,1.503999978E-1
1.935632656E1,-1.139999926E-2,2.985999882E-1,1.601999998E-1
1.936625312E1,-4.019999877E-2,3.146999776E-1,1.164999977E-1
1.937617969E1,-1.210999936E-1,3.841999769E-1,-4.279999807E-2
1.938610469E1,-1.024999991E-1,3.728999794E-1,-2.029999904E-2
1.939603125E1,-1.180000007E-1,3.312000036E-1,-9.420000017E-2
1.940595781E1,-4.270000011E-2,3.463000059E-1,-7.569999993E-2
1.941588438E1,2.899999917E-2,2.626000047E-1,-6.529999524E-2
1.942581094E1,5.499999970E-3,2.690999806E-1,-7.440000027E-2
1.943573594E1,7.499999832E-3,2.480999976E-1,7.019999623E-2
1.944566406E1,3.999999724E-3,2.978000045E-1,1.093999967E-1
1.945558906E1,-1.599999960E-3,2.902999818E-1,1.410000026E-1
1.946551563E1,3.370000049E-2,2.628000081E-1,4.959999770E-2
1.947544219E1,-4.679999873E-2,2.556000054E-1,1.199999941E-3
1.948536875E1,-3.909999877E-2,2.254000008E-1,-5.829999968E-2
1.949529531E1,4.939999804E-2,2.237999886E-1,-4.069999978E-2
1.950522188E1,2.419999987E-2,1.928000003E-1,3.539999947E-2
1.951514688E1,4.979999736E-2,2.316999882E-1,4.849999771E-2
1.952507344E1,2.869999968E-2,1.833999902E-1,7.889999449E-2
1.953500000E1,3.920000046E-2,1.941999942E-1,1.799999923E-2
1.954492656E1,7.689999789E-2,2.268999964E-1,1.092999950E-1
1.955485312E1,5.189999938E-2,1.906999946E-1,1.159999967E-1
1.956477812E1,-6.499999668E-3,2.743999958E-1,1.809999943E-1
1.957470469E1,-6.329999864E-2,2.939999998E-1,-4.449999705E-2
1.958463125E1,-1.089999974E-1,2.848999798E-1,-6.219999865E-2
1.959455781E1,-9.039999545E-2,3.413999975E-1,-6.879999489E-2
1.960448438E1,-3.659999743E-2,4.158999920E-1,-7.589999586E-2
1.961441094E1,2.740000002E-2,3.735999763E-1,1.049999967E-1
1.962433750E1,3.889999911E-2,4.333999753E-1,1.041999981E-1
1.963426406E1,8.289999515E-2,4.456000030E-1,1.556999981E-1
1.964418906E1,-7.999999798E-4,4.679999948E-1,1.066999957E-1
1.965411563E1,5.920000002E-2,6.092000008E-1,7.729999721E-2
1.966404219E1,8.799999952E-3,5.022000074E-1,4.889999703E-2
1.967396875E1,6.300000101E-2,4.547999799E-1,6.369999796E-2
1.968389531E1,-2.749999985E-2,4.438000023E-1,1.579999924E-2
1.969382188E1,-1.124999970E-1,5.288000107E-1,-7.909999788E-2
1.970374844E1,-5.089999735E-2,5.058000088E-1,-5.559999868E-2
1.971367344E1,-4.380000010E-2,4.951999784E-1,7.129999995E-2
1.972360000E1,2.749999985E-2,4.858999848E-1,1.743000001E-1
1.973352656E1,1.026999950E-1,4.860999882E-1,1.027999967E-1
1.974345313E1,3.119999915E-2,4.503999949E-1,1.054999977E-1
1.975337969E1,3.999999899E-4,3.659999967E-1,5.769999698E-2
1.976330625E1,4.270000011E-2,3.646999896E-1,-8.509999514E-2
1.977323281E1,4.939999804E-2,3.231999874E-1,-3.399999812E-3
1.978315781E1,-1.970000006E-2,2.924999893E-1,-9.899999946E-3
1.979308438E1,-4.360000044E-2,3.497999907E-1,4.429999739E-2
1.980301094E1,-1.128999963E-1,3.571999967E-1,1.970000006E-2
1.981293750E1,-9.640000015E-2,2.674999833E-1,-8.249999583E-2
1.982286406E1,4.019999877E-2,2.671000063E-1,3.979999945E-2
1.983279062E1,9.929999709E-2,2.773999870E-1,7.319999486E-2
1.984271719E1,1.235999987E-1,2.681999803E-1,1.053999960E-1
