"Time (s)","Acceleration x (m/s^2)","Acceleration y (m/s^2)","Acceleration z (m/s^2)"
0.000000000E0,-5.766099691E-1,1.014073753E1,1.583965540E0
4.962500000E-3,-8.757127523E-1,1.010723686E1,1.445178509E0
9.925000000E-3,-9.690291882E-1,1.021490955E1,1.394928932E0
1.488906300E-2,-9.881732464E-1,1.023405361E1,1.210690260E0
1.985156300E-2,-1.055172563E0,1.019098663E1,1.019259572E0
2.481562500E-2,-9.427121878E-1,1.032976341E1,8.804724813E-1
2.977812500E-2,-8.493957520E-1,1.023884201E1,7.297335267E-1
3.474218800E-2,-6.220710278E-1,1.025798607E1,4.617361724E-1
3.970468800E-2,-4.330440462E-1,1.004741096E1,2.655169666E-1
4.466718800E-2,-2.248634249E-1,1.002588272E1,1.427901909E-2
4.963125000E-2,3.595133126E-2,9.865556717E0,-1.771422029E-1
5.459375000E-2,1.101237014E-1,9.870346069E0,-4.331781268E-1
5.955781300E-2,1.531905979E-1,9.757884979E0,-5.887054205E-1
6.452031300E-2,1.436233670E-1,9.678915024E0,-7.968860865E-1
6.948437500E-2,1.316523552E-1,9.640635490E0,-8.303857446E-1
7.444843800E-2,6.705679744E-2,9.635848045E0,-8.758468628E-1
7.941093800E-2,2.398990095E-2,9.602347374E0,-7.777420878E-1
8.437343800E-2,-8.608591557E-2,9.549704552E0,-9.524134398E-1
8.933593800E-2,-2.416132689E-1,9.552098274E0,-8.423471451E-1
9.430000000E-2,-3.588621020E-1,9.528165817E0,-6.772430539E-1
9.926250000E-2,-4.282556474E-1,9.520993233E0,-4.523125887E-1
1.042250000E-1,-5.431103110E-1,9.585598946E0,-4.315309227E-2
1.091890630E-1,-5.215719938E-1,9.576031685E0,9.563399851E-2
1.141515630E-1,-5.000433922E-1,9.621492386E0,2.942378223E-1
1.191156250E-1,-5.287546515E-1,9.609530449E0,4.210538864E-1
1.240781250E-1,-5.478987098E-1,9.669347763E0,5.095914602E-1
1.290421880E-1,-6.795032024E-1,9.712413788E0,5.239470601E-1
1.340062500E-1,-6.603591442E-1,9.769846916E0,5.741965771E-1
1.389687500E-1,-6.675417423E-1,9.796163559E0,6.507631540E-1
1.439312500E-1,-6.795032024E-1,9.848807335E0,8.015117049E-1
1.488937500E-1,-6.627533436E-1,9.834450722E0,8.206557035E-1
1.538593750E-1,-7.249643207E-1,9.906239510E0,7.058010697E-1
1.588218750E-1,-7.584639192E-1,9.896661758E0,7.512621880E-1
1.637843750E-1,-6.771089435E-1,9.970844269E0,7.656177878E-1
1.687468750E-1,-5.526775122E-1,1.000195026E1,6.770898700E-1
1.737109380E-1,-5.191778541E-1,9.956489563E0,6.292344928E-1
1.786734380E-1,-5.311488509E-1,9.963662148E0,7.249451280E-1
1.836359380E-1,-4.928607643E-1,9.992383003E0,6.723014116E-1
1.886000000E-1,-5.167931914E-1,9.989988327E0,6.986184716E-1
1.935625000E-1,-3.708235621E-1,1.001391125E1,7.464833260E-1
1.985265630E-1,-4.234672487E-1,1.004501629E1,6.507631540E-1
2.034890630E-1,-3.756119311E-1,1.001630592E1,5.981194377E-1
2.084515630E-1,-3.134010136E-1,1.004501629E1,4.617361724E-1
2.134156250E-1,-2.942569554E-1,9.980412483E0,3.301316798E-1
2.183781250E-1,-2.703245282E-1,9.958883286E0,2.559497356E-1
2.233421880E-1,-2.487958670E-1,9.954094887E0,2.224500775E-1
2.283046880E-1,-1.435084492E-1,9.853595734E0,2.511613369E-1
2.332687500E-1,-7.411490381E-2,9.889489174E0,2.942378223E-1
2.382312500E-1,-4.721365869E-3,9.788990021E0,3.851599991E-1
2.431937500E-1,6.227797270E-2,9.765057564E0,4.090924561E-1
2.481578130E-1,9.338344634E-2,9.753096581E0,3.253432810E-1
2.531218750E-1,4.073973373E-2,9.726778984E0,3.492661417E-1
2.580843750E-1,5.746084207E-5,9.760279655E0,3.301316798E-1
2.630468750E-1,-8.608591557E-2,9.805740356E0,2.415941060E-1
2.680109380E-1,-1.411142498E-1,9.796163559E0,2.368056923E-1
2.729734380E-1,-2.727187276E-1,9.757884979E0,2.248442620E-1
2.779359380E-1,-3.899675608E-1,9.786596298E0,3.947368264E-1
2.829000000E-1,-4.139000177E-1,9.855990410E0,6.292344928E-1
2.878625000E-1,-4.450055063E-1,9.887095451E0,7.129837275E-1
2.928281250E-1,-5.167931914E-1,9.970844269E0,7.799734473E-1
2.977890630E-1,-5.311488509E-1,9.946911812E0,7.656177878E-1
3.027531250E-1,-5.191778541E-1,9.937344551E0,8.397997618E-1
3.077156250E-1,-5.311488509E-1,9.999555588E0,9.067991376E-1
3.126781250E-1,-5.287546515E-1,9.978017807E0,9.522601962E-1
3.176437500E-1,-4.641495049E-1,9.939739227E0,1.047970772E0
3.226062500E-1,-4.258614480E-1,9.987594604E0,1.098220348E0
3.275687500E-1,-3.325450420E-1,1.002826691E1,1.134114146E0
3.325312500E-1,-3.588621020E-1,9.997160912E0,1.119758487E0
3.374953130E-1,-3.899675608E-1,1.000434399E1,1.069509029E0
3.424593750E-1,-3.732177317E-1,1.000913239E1,9.570485950E-1
3.474218750E-1,-4.402170777E-1,9.963662148E0,8.374055624E-1
3.523859380E-1,-4.234672487E-1,9.985199928E0,7.225509286E-1
3.573484380E-1,-3.947559893E-1,1.002109337E1,7.177625299E-1
3.623109380E-1,-4.162942171E-1,9.949306488E0,7.058010697E-1
3.672734380E-1,-4.067174196E-1,1.002588272E1,6.723014116E-1
3.722375000E-1,-4.808993638E-1,9.994767189E0,6.196576953E-1
3.772015630E-1,-4.497938752E-1,9.918201447E0,6.890512705E-1
3.821640630E-1,-4.856877327E-1,9.987594604E0,6.723014116E-1
3.871265630E-1,-5.096106529E-1,9.982805252E0,7.129837275E-1
3.920890630E-1,-5.000433922E-1,9.956489563E0,6.459843516E-1
3.970531250E-1,-5.407160521E-1,9.918201447E0,6.603399515E-1
4.020156250E-1,-4.785051644E-1,9.949306488E0,6.914454103E-1
4.069796880E-1,-4.306498468E-1,9.920595169E0,6.723014116E-1
4.119437500E-1,-4.115057886E-1,9.899056435E0,6.627342105E-1
4.169062500E-1,-4.282556474E-1,9.889489174E0,6.914454103E-1
4.218687500E-1,-4.306498468E-1,9.858384132E0,6.316191554E-1
4.268328130E-1,-5.096106529E-1,9.887095451E0,6.196576953E-1
4.317953130E-1,-4.904665947E-1,9.870346069E0,5.909464359E-1
4.367578130E-1,-5.120047927E-1,9.889489174E0,4.617361724E-1
4.417218750E-1,-4.713225365E-1,9.853595734E0,3.420931101E-1
4.466859380E-1,-4.856877327E-1,9.858384132E0,2.368056923E-1
4.516484380E-1,-5.143990517E-1,9.812912941E0,2.176616639E-1
4.566109380E-1,-5.167931914E-1,9.832057953E0,3.061992526E-1
4.615734380E-1,-5.407160521E-1,9.879913330E0,3.205548823E-1
4.665375000E-1,-4.761109650E-1,9.800951958E0,2.176616639E-1
4.715000000E-1,-3.732177317E-1,9.803345680E0,2.463825047E-1
4.764640630E-1,-3.923617899E-1,9.803345680E0,2.846610248E-1
4.814281250E-1,-3.229682446E-1,9.762663841E0,2.176616639E-1
4.863906250E-1,-2.535746992E-1,9.800951958E0,2.966320217E-1
4.913531250E-1,-2.966511548E-1,9.841633797E0,4.521593750E-1
4.963171880E-1,-2.368248552E-1,9.827268600E0,5.885522366E-1
5.012796880E-1,-2.559688985E-1,9.858384132E0,7.369065285E-1
5.062437500E-1,-1.937579513E-1,9.865556717E0,8.637226820E-1
5.112062500E-1,-2.129019946E-1,9.836845398E0,8.876550794E-1
5.161687500E-1,-1.985463500E-1,9.865556717E0,8.852608800E-1
5.211328130E-1,-1.841907203E-1,9.860768318E0,9.546543956E-1
5.260953130E-1,-1.674408913E-1,9.906239510E0,8.948376179E-1
5.310578130E-1,-1.794023216E-1,9.899056435E0,8.110885024E-1
5.360218750E-1,-2.296518236E-1,9.896661758E0,7.393007874E-1
5.409859380E-1,-3.564679027E-1,9.896661758E0,7.225509286E-1
5.459468750E-1,-3.373238444E-1,9.860768318E0,6.770898700E-1
5.509109380E-1,-4.091115892E-1,9.884700775E0,7.034068704E-1
5.558734380E-1,-4.426112771E-1,9.913412094E0,7.201567292E-1
5.608375000E-1,-4.880723953E-1,9.877518654E0,7.153682709E-1
5.658015630E-1,-4.282556474E-1,9.918201447E0,7.584447861E-1
5.707640630E-1,-4.569669068E-1,9.853595734E0,6.770898700E-1
5.757265630E-1,-4.665437341E-1,9.915806770E0,7.081953287E-1
5.806890630E-1,-4.521880746E-1,9.824884415E0,7.847618461E-1
5.856531250E-1,-4.091115892E-1,9.860768318E0,7.034068704E-1
5.906171880E-1,-3.780061305E-1,9.844018936E0,7.656177878E-1
5.955796880E-1,-3.492948711E-1,9.841633797E0,7.488679886E-1
6.005437500E-1,-3.947559893E-1,9.832057953E0,7.488679886E-1
6.055062500E-1,-3.947559893E-1,9.858384132E0,7.034068704E-1
6.104687500E-1,-4.258614480E-1,9.805740356E0,6.388017535E-1
6.154328130E-1,-3.564679027E-1,9.788990021E0,6.627342105E-1
6.203953130E-1,-3.181893826E-1,9.800951958E0,6.651188135E-1
6.253578130E-1,-2.918627560E-1,9.812912941E0,6.723014116E-1
6.303218750E-1,-2.679399252E-1,9.805740356E0,5.119856596E-1
6.352843750E-1,-3.684388995E-1,9.805740356E0,5.694081783E-1
6.402484380E-1,-3.373238444E-1,9.815307617E0,5.598409176E-1
6.452109380E-1,-2.607572973E-1,9.812912941E0,5.789849758E-1
6.501734380E-1,-3.349392414E-1,9.841633797E0,5.526583791E-1
6.551375000E-1,-3.181893826E-1,9.803345680E0,4.976204634E-1
6.601000000E-1,-3.421122730E-1,9.774634361E0,4.210538864E-1
6.650640630E-1,-3.205740452E-1,9.808135033E0,4.689091742E-1
6.700265630E-1,-3.756119311E-1,9.796163559E0,5.263413191E-1
6.749890630E-1,-3.660447001E-1,9.810519218E0,4.880532324E-1
6.799531250E-1,-4.043232203E-1,9.829663277E0,5.095914602E-1
6.849421880E-1,-3.564679027E-1,9.779414177E0,4.497651756E-1
6.898796880E-1,-3.038241863E-1,9.786596298E0,4.689091742E-1
6.948421880E-1,-3.564679027E-1,9.757884979E0,4.330153167E-1
6.998062500E-1,-3.612563312E-1,9.760279655E0,3.947368264E-1
7.047687500E-1,-3.804003298E-1,9.827268600E0,4.210538864E-1
7.097328130E-1,-3.564679027E-1,9.798557281E0,4.569477439E-1
7.146953130E-1,-2.559688985E-1,9.805740356E0,4.713034034E-1
7.196578130E-1,-3.205740452E-1,9.812912941E0,6.172634959E-1
7.246218750E-1,-3.397180736E-1,9.896661758E0,6.986184716E-1
7.295843750E-1,-3.421122730E-1,9.882307053E0,7.034068704E-1
7.345484380E-1,-2.607572973E-1,9.863162994E0,7.943387032E-1
7.395109380E-1,-1.746139228E-1,9.851201057E0,7.799734473E-1
7.444734380E-1,-7.411490381E-2,9.870346069E0,8.996165395E-1
7.494375000E-1,-5.019204319E-2,9.877518654E0,8.326171637E-1
7.544000000E-1,8.380663395E-2,9.903844833E0,8.637226820E-1
7.593640630E-1,9.634267539E-3,9.858384132E0,9.977213144E-1
7.643281250E-1,-2.336740959E-3,9.870346069E0,9.450871348E-1
7.692906250E-1,-6.933607906E-2,9.872738838E0,8.996165395E-1
7.742531250E-1,2.398990095E-2,9.863162994E0,7.895502448E-1
7.792156250E-1,-4.540364072E-2,9.858384132E0,6.842628121E-1
7.841796880E-1,-1.052203774E-1,9.980412483E0,5.741965771E-1
7.891421880E-1,-1.602582783E-1,9.860768318E0,6.794840097E-1
7.941062500E-1,-2.200750262E-1,9.860768318E0,6.818686724E-1
7.990687500E-1,-2.535746992E-1,9.915806770E0,7.321181893E-1
8.040328130E-1,-3.205740452E-1,9.889489174E0,6.579458117E-1
8.089953130E-1,-2.511900663E-1,9.925383568E0,8.063001037E-1
8.139593750E-1,-2.487958670E-1,9.903844833E0,8.302229643E-1
8.189218750E-1,-1.913637519E-1,9.899056435E0,8.278383017E-1
8.238843750E-1,-2.224692255E-1,9.848807335E0,8.158673048E-1
8.288484380E-1,-3.469006717E-1,9.906239510E0,8.063001037E-1
8.338109380E-1,-3.181893826E-1,9.882307053E0,8.469727635E-1
8.387750000E-1,-3.086126149E-1,9.851201057E0,9.474717975E-1
8.437375000E-1,-2.918627560E-1,9.889489174E0,8.876550794E-1
8.487000000E-1,-3.110068142E-1,9.860768318E0,9.426929951E-1
8.536640630E-1,-3.349392414E-1,9.817702293E0,9.522601962E-1
8.586265630E-1,-3.445064723E-1,9.836845398E0,9.450871348E-1
8.635906250E-1,-2.583630979E-1,9.913412094E0,8.900492787E-1
8.685531250E-1,-2.057193965E-1,9.848807335E0,7.823676467E-1
8.735171880E-1,-1.913637519E-1,9.738740921E0,7.416949272E-1
8.784796880E-1,-1.052203774E-1,9.731558800E0,7.273392677E-1
8.834421880E-1,5.746084207E-5,9.731558800E0,6.603399515E-1
8.884062500E-1,3.834553435E-2,9.712413788E0,5.718024373E-1
8.933687500E-1,4.791276529E-2,9.729164124E0,5.191587210E-1
8.983328130E-1,5.748957023E-2,9.659780502E0,4.641303718E-1
9.032953130E-1,4.845864139E-3,9.657385826E0,4.282364845E-1
9.082578130E-1,1.680729724E-2,9.705241203E0,4.330153167E-1
9.132218750E-1,-1.669237576E-2,9.710029602E0,5.167644620E-1
9.181843750E-1,-1.908657700E-2,9.757884979E0,4.497651756E-1
9.231484380E-1,-3.344221041E-2,9.743529320E0,4.641303718E-1
9.281109380E-1,-5.019204319E-2,9.666953087E0,5.071972609E-1
9.330750000E-1,-5.019204319E-2,9.702846527E0,5.478699207E-1
9.380375000E-1,-6.215347722E-2,9.712413788E0,5.550525784E-1
9.430015630E-1,-2.386540174E-2,9.700452805E0,5.215529203E-1
9.479640630E-1,-3.344221041E-2,9.705241203E0,3.995156586E-1
9.529265630E-1,-1.908657700E-2,9.671741486E0,3.755927682E-1
9.578906250E-1,-1.147971824E-1,9.698058128E0,5.024088621E-1
9.628531250E-1,-1.243644133E-1,9.714808464E0,6.148692966E-1
9.678171880E-1,-2.918627560E-1,9.700452805E0,6.411958933E-1
9.727796880E-1,-3.205740452E-1,9.690885544E0,7.823676467E-1
9.777421880E-1,-3.397180736E-1,9.669347763E0,8.182615638E-1
9.827062500E-1,-3.492948711E-1,9.693280220E0,7.895502448E-1
9.876687500E-1,-3.995443583E-1,9.631059647E0,7.416949272E-1
9.926328130E-1,-3.181893826E-1,9.638241768E0,6.723014116E-1
9.975953130E-1,-2.703245282E-1,9.645415306E0,6.220518947E-1
1.002557813E0,-2.535746992E-1,9.688490868E0,4.808706343E-1
1.007521875E0,-2.464016527E-1,9.609530449E0,4.497651756E-1
1.012484375E0,-2.272576243E-1,9.585598946E0,4.162654579E-1
1.017448438E0,-2.200750262E-1,9.585598946E0,5.646198392E-1
1.022410938E0,-2.129019946E-1,9.552098274E0,5.981194377E-1
1.027375000E0,-2.583630979E-1,9.566453934E0,6.459843516E-1
1.032337500E0,-2.679399252E-1,9.499455452E0,6.890512705E-1
1.037301563E0,-2.822955251E-1,9.497060776E0,6.483689547E-1
1.042264063E0,-2.392190546E-1,9.518598557E0,6.388017535E-1
1.047226563E0,-2.511900663E-1,9.504242897E0,6.483689547E-1
1.052190625E0,-1.770081222E-1,9.480310440E0,6.651188135E-1
1.057153125E0,-2.129019946E-1,9.468349457E0,6.268403530E-1
1.062117188E0,-1.889695525E-1,9.494675636E0,5.526583791E-1
1.067079688E0,-1.985463500E-1,9.432456017E0,6.005136967E-1
1.072042188E0,-2.200750262E-1,9.463561058E0,4.401979446E-1
1.077006250E0,-1.698351055E-1,9.444426537E0,3.995156586E-1
1.081968750E0,-1.626524776E-1,9.485099792E0,3.612371385E-1
1.086932813E0,-1.267586201E-1,9.446811676E0,3.301316798E-1
1.091895313E0,-1.076145768E-1,9.391782761E0,2.368056923E-1
1.096857813E0,-2.865380608E-2,9.382205963E0,1.865562052E-1
1.101821875E0,-7.650911063E-2,9.379811287E0,1.626333296E-1
1.106784375E0,-1.052203774E-1,9.401350975E0,1.458835006E-1
1.111748438E0,-1.004415527E-1,9.408533096E0,1.004128158E-1
1.116710938E0,-1.411142498E-1,9.415705681E0,1.602391303E-1
1.121673438E0,-1.171913818E-1,9.408533096E0,1.482776999E-1
1.126637500E0,-1.435084492E-1,9.422888756E0,1.028070226E-1
1.131601563E0,-1.889695525E-1,9.422888756E0,1.602391303E-1
1.136564063E0,-1.985463500E-1,9.408533096E0,1.698063612E-1
1.141526563E0,-1.411142498E-1,9.470744133E0,1.937388033E-1
1.146489063E0,-1.865849346E-1,9.341533661E0,2.224500775E-1
1.151453125E0,-2.248634249E-1,9.403743744E0,1.147780269E-1
1.156415625E0,-2.009405643E-1,9.463561058E0,1.793831587E-1
1.161379688E0,-2.846897244E-1,9.504242897E0,2.415941060E-1
1.166342188E0,-3.134010136E-1,9.537743568E0,2.200558633E-1
1.171306250E0,-4.067174196E-1,9.566453934E0,3.061992526E-1
1.176268750E0,-4.139000177E-1,9.638241768E0,4.186596870E-1
1.181232813E0,-3.947559893E-1,9.638241768E0,4.976204634E-1
1.186195313E0,-3.469006717E-1,9.686098099E0,4.713034034E-1
1.191159375E0,-3.277566135E-1,9.748308182E0,6.316191554E-1
1.196121875E0,-3.612563312E-1,9.803345680E0,5.861580372E-1
1.201084375E0,-2.583630979E-1,9.824884415E0,5.957348347E-1
1.206048438E0,-2.679399252E-1,9.894268990E0,6.483689547E-1
1.211012500E0,-2.009405643E-1,1.000195026E1,7.584447861E-1
1.215975000E0,-2.033347636E-1,1.004741096E1,7.871560454E-1
1.220937500E0,-1.985463500E-1,1.004741096E1,8.828666210E-1
1.225900000E0,-1.363354176E-1,1.009766006E1,8.828666210E-1
1.230864063E0,-1.530852467E-1,1.009288216E1,9.020106792E-1
1.235828125E0,-2.272576243E-1,1.009048748E1,9.283373356E-1
1.240789063E0,-2.511900663E-1,1.015509319E1,8.924434781E-1
1.245753125E0,-2.105077952E-1,1.008569908E1,7.799734473E-1
1.250717188E0,-2.368248552E-1,1.010005474E1,7.297335267E-1
1.255679688E0,-2.320460379E-1,1.008569908E1,7.321181893E-1
1.260642188E0,-2.511900663E-1,1.014073753E1,7.129837275E-1
1.265606250E0,-2.344402373E-1,1.010244942E1,6.435901523E-1
1.270570313E0,-2.559688985E-1,1.009048748E1,6.938396692E-1
1.275532813E0,-3.134010136E-1,1.010723686E1,6.579458117E-1
1.280495313E0,-3.253624141E-1,1.008809376E1,6.555515528E-1
1.285459375E0,-3.421122730E-1,1.010962200E1,7.488679886E-1
1.290421875E0,-2.296518236E-1,1.013355446E1,7.249451280E-1
1.295384375E0,-2.703245282E-1,1.008569908E1,6.675130129E-1
1.300348438E0,-2.368248552E-1,1.002109337E1,5.909464359E-1
1.305310938E0,-3.014395833E-1,1.001391125E1,5.837638378E-1
1.310275000E0,-2.799013257E-1,1.008569908E1,5.143703222E-1
1.315237500E0,-2.559688985E-1,1.001870060E1,4.378037155E-1
1.320200000E0,-2.822955251E-1,9.980412483E0,4.856590331E-1
1.325162500E0,-2.990453839E-1,9.920595169E0,5.981194377E-1
1.330126563E0,-2.464016527E-1,9.978017807E0,5.048030615E-1
1.335090625E0,-2.559688985E-1,9.942132950E0,5.502641797E-1
1.340053125E0,-1.770081222E-1,9.889489174E0,4.952358305E-1
1.345017188E0,-1.363354176E-1,9.908634186E0,4.880532324E-1
1.349979688E0,-2.296518236E-1,9.815307617E0,4.641303718E-1
1.354943750E0,-2.200750262E-1,9.760279655E0,4.784860015E-1
1.359906250E0,-1.865849346E-1,9.731558800E0,4.736976027E-1
1.364868750E0,-1.698351055E-1,9.729164124E0,4.784860015E-1
1.369831250E0,-2.344402373E-1,9.707635880E0,4.617361724E-1
1.374795313E0,-1.626524776E-1,9.662164688E0,5.000146627E-1
1.379757813E0,-1.506910622E-1,9.611914635E0,6.148692966E-1
1.384721875E0,-1.195855886E-1,9.626279831E0,4.760918021E-1
1.389684375E0,-1.602582783E-1,9.556886673E0,5.000146627E-1
1.394648438E0,-7.890331000E-2,9.528165817E0,5.048030615E-1
1.399612500E0,-1.746139228E-1,9.456387520E0,3.516603410E-1
1.404575000E0,-3.822103515E-2,9.513810158E0,2.894493937E-1
1.409539063E0,-1.459026486E-1,9.489887238E0,3.038050532E-1
1.414501563E0,-2.368248552E-1,9.465954781E0,3.875542283E-1
1.419464063E0,-2.344402373E-1,9.482705116E0,4.306307137E-1
1.424426563E0,-2.511900663E-1,9.561666489E0,5.024088621E-1
1.429390625E0,-2.320460379E-1,9.540136337E0,5.550525784E-1
1.434353125E0,-2.655456960E-1,9.506637573E0,5.430911183E-1
1.439315625E0,-2.775071263E-1,9.506637573E0,5.048030615E-1
1.444279688E0,-2.775071263E-1,9.499455452E0,4.473805130E-1
1.449242188E0,-2.751129270E-1,9.497060776E0,4.282364845E-1
1.454206250E0,-2.511900663E-1,9.590386391E0,3.301316798E-1
1.459168750E0,-2.918627560E-1,9.523387909E0,3.253432810E-1
1.464131250E0,-2.822955251E-1,9.580809593E0,4.210538864E-1
1.469095313E0,-3.110068142E-1,9.628664970E0,4.401979446E-1
1.474057813E0,-2.727187276E-1,9.592781067E0,4.736976027E-1
1.479021875E0,-2.009405643E-1,9.580809593E0,4.210538864E-1
1.483984375E0,-1.913637519E-1,9.611914635E0,3.899484277E-1
1.488946875E0,-1.913637519E-1,9.643030167E0,5.024088621E-1
1.493910938E0,-1.100087836E-1,9.683703423E0,5.119856596E-1
1.498873438E0,-1.028357521E-1,9.686098099E0,4.808706343E-1
1.503837500E0,-9.325893968E-2,9.741134644E0,4.569477439E-1
1.508800000E0,-1.147971824E-1,9.757884979E0,5.143703222E-1
1.513764063E0,-1.004415527E-1,9.762663841E0,4.880532324E-1
1.518726563E0,-1.195855886E-1,9.820096016E0,4.832648337E-1
1.523689063E0,-1.889695525E-1,9.810519218E0,5.359085202E-1
1.528654688E0,-2.105077952E-1,9.887095451E0,6.220518947E-1
1.533617188E0,-2.129019946E-1,9.839240074E0,6.220518947E-1
1.538581250E0,-2.129019946E-1,9.884700775E0,5.311201215E-1
1.543542188E0,-1.985463500E-1,1.000913239E1,5.741965771E-1
1.548506250E0,-2.655456960E-1,9.915806770E0,5.789849758E-1
1.553468750E0,-1.674408913E-1,9.942132950E0,5.741965771E-1
1.558431250E0,-2.224692255E-1,9.944517136E0,5.574467778E-1
1.563395313E0,-1.674408913E-1,1.000195026E1,4.808706343E-1
1.568357813E0,-2.248634249E-1,9.985199928E0,4.449863136E-1
1.573321875E0,-2.751129270E-1,1.001630592E1,4.138808548E-1
1.578285938E0,-2.583630979E-1,1.003544903E1,3.803811967E-1
1.583248438E0,-2.248634249E-1,1.004501629E1,4.617361724E-1
1.588210938E0,-2.655456960E-1,1.013115978E1,4.545535445E-1
1.593173438E0,-2.751129270E-1,1.013594818E1,5.335143209E-1
1.598137500E0,-2.918627560E-1,1.013355446E1,5.981194377E-1
1.603100000E0,-2.966511548E-1,1.018140984E1,6.794840097E-1
1.608064063E0,-2.631514966E-1,1.020294857E1,7.297335267E-1
1.613026563E0,-2.511900663E-1,1.027951431E1,6.340133548E-1
1.617990625E0,-2.966511548E-1,1.023644733E1,5.526583791E-1
1.622953125E0,-2.870743573E-1,1.023644733E1,5.550525784E-1
1.627915625E0,-3.253624141E-1,1.022926426E1,5.287354589E-1
1.632879688E0,-3.181893826E-1,1.028190899E1,5.430911183E-1
1.637842188E0,-3.110068142E-1,1.024123669E1,6.196576953E-1
1.642806250E0,-3.157951832E-1,1.029386997E1,6.268403530E-1
1.647768750E0,-3.516891003E-1,1.032259083E1,5.861580372E-1
1.652732813E0,-3.636505008E-1,1.032019711E1,5.957348347E-1
1.657695313E0,-3.564679027E-1,1.031780243E1,6.220518947E-1
1.662657813E0,-3.564679027E-1,1.026755238E1,6.986184716E-1
1.667621875E0,-3.469006717E-1,1.029386997E1,7.991175056E-1
1.672584375E0,-3.612563312E-1,1.031780243E1,8.326171637E-1
1.677548438E0,-3.564679027E-1,1.028909206E1,8.517611623E-1
1.682510938E0,-3.684388995E-1,1.033215809E1,7.632332444E-1
1.687475000E0,-3.588621020E-1,1.031780243E1,7.177625299E-1
1.692437500E0,-3.373238444E-1,1.035369587E1,7.440891862E-1
1.697400000E0,-2.966511548E-1,1.034890842E1,6.675130129E-1
1.702364063E0,-2.775071263E-1,1.027473545E1,6.579458117E-1
1.707326563E0,-2.990453839E-1,1.027951431E1,7.488679886E-1
1.712290625E0,-2.751129270E-1,1.027951431E1,6.962338090E-1
1.717253125E0,-2.272576243E-1,1.023644733E1,7.751946449E-1
1.722217188E0,-1.698351055E-1,1.020294857E1,7.034068704E-1
1.727179688E0,-1.506910622E-1,1.024123669E1,6.770898700E-1
1.732142188E0,-9.325893968E-2,1.026755238E1,7.632332444E-1
1.737106250E0,-1.908657700E-2,1.018140984E1,7.799734473E-1
1.742068750E0,3.595133126E-2,1.016466045E1,8.134731650E-1
1.747032813E0,4.791276529E-2,1.010723686E1,7.775887847E-1
1.751995313E0,2.159569971E-2,1.003784370E1,7.751946449E-1
1.756959375E0,2.451662440E-3,9.992383003E0,7.584447861E-1
1.761921875E0,9.634267539E-3,9.966055870E0,7.297335267E-1
1.766884375E0,2.159569971E-2,9.958883286E0,6.388017535E-1
1.771848438E0,-1.243644133E-1,9.884700775E0,5.574467778E-1
1.776810938E0,-8.608591557E-2,9.765057564E0,5.574467778E-1
1.781775000E0,-1.195855886E-1,9.817702293E0,5.215529203E-1
1.786737500E0,-1.626524776E-1,9.798557281E0,5.933406353E-1
1.791701563E0,-1.889695525E-1,9.757884979E0,6.364075541E-1
1.796664063E0,-2.105077952E-1,9.717203140E0,6.005136967E-1
1.801626563E0,-1.985463500E-1,9.693280220E0,6.746956110E-1
1.806590625E0,-2.320460379E-1,9.654992104E0,5.909464359E-1
1.811553125E0,-1.913637519E-1,9.650202751E0,5.741965771E-1
1.816517188E0,-1.578640938E-1,9.590386391E0,6.148692966E-1
1.821479688E0,-1.650466919E-1,9.587991714E0,5.359085202E-1
1.826443750E0,-1.985463500E-1,9.576031685E0,5.239470601E-1
1.831406250E0,-1.578640938E-1,9.556886673E0,5.071972609E-1
1.836368750E0,-2.368248552E-1,9.530560493E0,5.813696384E-1
1.841332813E0,-2.942569554E-1,9.509031296E0,5.071972609E-1
1.846295313E0,-3.301508427E-1,9.453993797E0,5.311201215E-1
1.851257813E0,-3.445064723E-1,9.451600075E0,5.000146627E-1
1.856221875E0,-3.349392414E-1,9.451600075E0,5.765908360E-1
1.861184375E0,-4.043232203E-1,9.458782196E0,6.076962948E-1
1.866148438E0,-3.780061305E-1,9.504242897E0,5.335143209E-1
1.871110938E0,-3.277566135E-1,9.422888756E0,5.885522366E-1
1.876075000E0,-2.990453839E-1,9.449205399E0,5.574467778E-1
1.881037500E0,-2.846897244E-1,9.396561623E0,4.138808548E-1
1.886001563E0,-3.134010136E-1,9.365455627E0,3.468815386E-1
1.890964063E0,-2.655456960E-1,9.312812805E0,3.109876513E-1
1.895926563E0,-3.014395833E-1,9.298457146E0,2.774879634E-1
1.900890625E0,-2.799013257E-1,9.391782761E0,2.583439350E-1
1.905853125E0,-3.277566135E-1,9.324783325E0,2.535555363E-1
1.910817188E0,-3.110068142E-1,9.351100922E0,3.516603410E-1
1.915779688E0,-2.942569554E-1,9.286495209E0,3.133818507E-1
1.920742188E0,-3.086126149E-1,9.329562187E0,3.277374804E-1
1.925706250E0,-2.583630979E-1,9.363062859E0,2.942378223E-1
1.930668750E0,-2.440074682E-1,9.365455627E0,3.229490519E-1
1.935632813E0,-2.129019946E-1,9.408533096E0,2.272384614E-1
1.940595313E0,-2.248634249E-1,9.458782196E0,2.870551944E-1
1.945559375E0,-3.301508427E-1,9.475532532E0,2.631323636E-1
1.950521875E0,-2.870743573E-1,9.537743568E0,2.990166247E-1
1.955484375E0,-2.799013257E-1,9.556886673E0,3.755927682E-1
1.960448438E0,-2.918627560E-1,9.571242332E0,3.061992526E-1
1.965410938E0,-2.655456960E-1,9.580809593E0,3.731985688E-1
1.970375000E0,-2.966511548E-1,9.585598946E0,3.923426270E-1
1.975337500E0,-2.559688985E-1,9.628664970E0,3.492661417E-1
1.980301563E0,-2.631514966E-1,9.616703987E0,3.660160005E-1
1.985264063E0,-2.200750262E-1,9.678915024E0,2.344114929E-1
1.990226563E0,-2.320460379E-1,9.690885544E0,3.731985688E-1
1.995190625E0,-1.841907203E-1,9.676529884E0,4.545535445E-1
2.000153125E0,-2.200750262E-1,9.705241203E0,4.784860015E-1
2.005117188E0,-3.014395833E-1,9.724386215E0,5.526583791E-1
2.010079688E0,-2.511900663E-1,9.710029602E0,5.837638378E-1
2.015043750E0,-2.224692255E-1,9.731558800E0,6.076962948E-1
2.020006250E0,-1.985463500E-1,9.796163559E0,5.550525784E-1
2.024970313E0,-2.296518236E-1,9.777029037E0,5.024088621E-1
2.029932813E0,-2.176903933E-1,9.836845398E0,4.736976027E-1
2.034895313E0,-2.799013257E-1,9.781807899E0,3.851599991E-1
2.039859375E0,-3.110068142E-1,9.834450722E0,4.665149748E-1
2.044821875E0,-2.966511548E-1,9.855990410E0,4.760918021E-1
2.049785938E0,-1.698351055E-1,9.901451111E0,6.579458117E-1
2.054748438E0,-1.100087836E-1,9.918201447E0,6.005136967E-1
2.059710938E0,-2.105077952E-1,9.958883286E0,5.909464359E-1
2.064675000E0,-2.200750262E-1,9.932557106E0,5.239470601E-1
2.069637500E0,-1.913637519E-1,9.968450546E0,4.066982567E-1
2.074601563E0,-2.368248552E-1,9.942132950E0,4.497651756E-1
2.079564063E0,-2.296518236E-1,9.992383003E0,4.449863136E-1
2.084528125E0,-2.487958670E-1,1.001630592E1,5.071972609E-1
2.089490625E0,-2.176903933E-1,1.008569908E1,5.000146627E-1
2.094453125E0,-1.530852467E-1,1.012398720E1,6.890512705E-1
2.099417188E0,-1.626524776E-1,1.014791012E1,6.483689547E-1
2.104379688E0,-1.411142498E-1,1.014791012E1,6.914454103E-1
2.109343750E0,-1.578640938E-1,1.012398720E1,6.340133548E-1
2.114306250E0,-1.770081222E-1,1.010244942E1,5.957348347E-1
2.119270313E0,-2.248634249E-1,1.014073753E1,6.053020358E-1
2.124232813E0,-2.727187276E-1,1.014312172E1,7.081953287E-1
2.129195313E0,-3.014395833E-1,1.012159252E1,7.608389854E-1
2.134159375E0,-2.799013257E-1,1.005459404E1,7.991175056E-1
2.139121875E0,-2.152961940E-1,1.010005474E1,7.560505867E-1
2.144085938E0,-2.320460379E-1,1.014073753E1,7.943387032E-1
2.149048438E0,-2.272576243E-1,1.012876606E1,7.081953287E-1
2.154010938E0,-2.655456960E-1,1.006655502E1,6.364075541E-1
2.158975000E0,-1.578640938E-1,1.009766006E1,5.430911183E-1
2.163937500E0,-2.583630979E-1,1.000434399E1,5.263413191E-1
2.168901563E0,-2.942569554E-1,1.003544903E1,4.689091742E-1
2.173864063E0,-2.392190546E-1,1.000434399E1,5.048030615E-1
2.178828125E0,-2.583630979E-1,1.001391125E1,5.526583791E-1
2.183790625E0,-2.894685566E-1,9.958883286E0,5.454853773E-1
2.188753125E0,-3.086126149E-1,9.918201447E0,6.268403530E-1
2.193717188E0,-3.062183857E-1,9.896661758E0,7.058010697E-1
2.198679688E0,-3.588621020E-1,9.911018372E0,6.364075541E-1
2.203642188E0,-3.851887584E-1,9.911018372E0,8.158673048E-1
2.208606250E0,-3.899675608E-1,9.913412094E0,7.871560454E-1
2.213570313E0,-3.229682446E-1,9.896661758E0,8.565496206E-1
2.218532813E0,-2.775071263E-1,9.882307053E0,7.943387032E-1
2.223495313E0,-2.511900663E-1,9.870346069E0,7.560505867E-1
2.228459375E0,-1.985463500E-1,9.803345680E0,5.071972609E-1
2.233421875E0,-1.722197086E-1,9.777029037E0,5.167644620E-1
2.238385938E0,-1.985463500E-1,9.774634361E0,5.311201215E-1
2.243348438E0,-1.770081222E-1,9.781807899E0,4.114866555E-1
2.248312500E0,-2.248634249E-1,9.705241203E0,4.760918021E-1
2.253275000E0,-1.937579513E-1,9.669347763E0,5.024088621E-1
2.258237500E0,-1.411142498E-1,9.678915024E0,4.425921440E-1
2.263201563E0,-1.052203774E-1,9.631059647E0,4.473805130E-1
2.268164063E0,-8.608591557E-2,9.666953087E0,5.048030615E-1
2.273128125E0,-1.052203774E-1,9.626279831E0,5.119856596E-1
2.278090625E0,-6.215347722E-2,9.619097710E0,5.191587210E-1
2.283053125E0,-8.369170874E-2,9.576031685E0,5.311201215E-1
2.288017188E0,-7.650911063E-2,9.556886673E0,4.808706343E-1
2.292979688E0,-1.100087836E-1,9.530560493E0,5.383027196E-1
2.297942188E0,-1.674408913E-1,9.504242897E0,4.569477439E-1
2.302906250E0,-1.339412183E-1,9.451600075E0,4.497651756E-1
2.307870313E0,-1.770081222E-1,9.468349457E0,4.282364845E-1
2.312832813E0,-1.482968628E-1,9.451600075E0,4.330153167E-1
2.317796875E0,-2.224692255E-1,9.437244415E0,4.043040574E-1
2.322759375E0,-2.416132689E-1,9.442031860E0,5.454853773E-1
2.327721875E0,-1.985463500E-1,9.449205399E0,5.335143209E-1
2.332684375E0,-2.296518236E-1,9.386994362E0,6.220518947E-1
2.337648438E0,-1.650466919E-1,9.406138420E0,6.340133548E-1
2.342610938E0,-1.626524776E-1,9.415705681E0,6.675130129E-1
2.347575000E0,-1.530852467E-1,9.408533096E0,6.196576953E-1
2.352539063E0,-1.124029830E-1,9.415705681E0,5.071972609E-1
2.357501563E0,-1.435084492E-1,9.434849739E0,4.521593750E-1
2.362464063E0,-8.608591557E-2,9.418099403E0,4.306307137E-1
2.367428125E0,-1.076145768E-1,9.389389038E0,3.085934520E-1
2.372390625E0,-8.847054094E-2,9.434849739E0,2.272384614E-1
2.377354688E0,-1.339412183E-1,9.430061340E0,2.463825047E-1
2.382317188E0,-6.933607906E-2,9.489887238E0,3.205548823E-1
2.387279688E0,7.240065839E-3,9.453993797E0,3.516603410E-1
2.392242188E0,-5.736507475E-2,9.427677155E0,4.593419433E-1
2.397206250E0,-8.129751682E-2,9.413311958E0,4.569477439E-1
2.402168750E0,-1.147971824E-1,9.394176483E0,4.114866555E-1
2.407132813E0,-1.195855886E-1,9.422888756E0,3.923426270E-1
2.412095313E0,-1.674408913E-1,9.391782761E0,3.444873095E-1
2.417059375E0,-1.124029830E-1,9.408533096E0,3.038050532E-1
2.422023438E0,-1.243644133E-1,9.427677155E0,2.535555363E-1
2.426985938E0,-2.272576243E-1,9.415705681E0,3.085934520E-1
2.431950000E0,-2.511900663E-1,9.394176483E0,3.253432810E-1
2.436912500E0,-2.535746992E-1,9.413311958E0,3.325162828E-1
2.441875000E0,-2.727187276E-1,9.401350975E0,4.066982567E-1
2.446837500E0,-3.062183857E-1,9.403743744E0,4.234480858E-1
2.451801563E0,-3.157951832E-1,9.422888756E0,4.976204634E-1
2.456764063E0,-2.081135809E-1,9.473137856E0,5.406969786E-1
2.461728125E0,-2.416132689E-1,9.477926254E0,5.502641797E-1
2.466690625E0,-1.961521655E-1,9.497060776E0,4.497651756E-1
2.471653125E0,-1.650466919E-1,9.504242897E0,5.550525784E-1
2.476617188E0,-1.052203774E-1,9.544916153E0,4.760918021E-1
2.481579688E0,-6.694187969E-2,9.573637009E0,4.258422852E-1
2.486543750E0,-8.129751682E-2,9.585598946E0,4.138808548E-1
2.491506250E0,5.746084207E-5,9.513810158E0,4.090924561E-1
2.496468750E0,-1.669237576E-2,9.549704552E0,3.971310258E-1
2.501432813E0,-4.779784381E-2,9.511416435E0,3.492661417E-1
2.506395313E0,-4.721365869E-3,9.485099792E0,3.492661417E-1
2.511359375E0,-4.540364072E-2,9.494675636E0,3.947368264E-1
2.516321875E0,-6.694187969E-2,9.532955170E0,4.808706343E-1
2.521285938E0,-6.933607906E-2,9.602347374E0,4.545535445E-1
2.526248438E0,-5.497087166E-2,9.611914635E0,4.928416312E-1
2.531210938E0,-8.608591557E-2,9.619097710E0,5.813696384E-1
2.536175000E0,-1.195855886E-1,9.547310829E0,4.066982567E-1
2.541137500E0,-8.608591557E-2,9.576031685E0,3.660160005E-1
2.546101563E0,-8.847054094E-2,9.597559929E0,3.708043694E-1
2.551064063E0,-9.086474776E-2,9.619097710E0,4.641303718E-1
2.556026563E0,-8.369170874E-2,9.595166206E0,4.401979446E-1
2.560990625E0,-6.933607906E-2,9.647809982E0,5.670139790E-1
2.565954688E0,-5.975927413E-2,9.695664406E0,6.196576953E-1
2.570917188E0,-8.129751682E-2,9.719596863E0,7.608389854E-1
2.575879688E0,2.451662440E-3,9.750701904E0,7.823676467E-1
2.580843750E0,-5.258624628E-2,9.753096581E0,7.871560454E-1
2.585806250E0,-6.694187969E-2,9.743529320E0,7.297335267E-1
2.590768750E0,-4.300943762E-2,9.693280220E0,6.100904346E-1
2.595732813E0,-5.019204319E-2,9.695664406E0,4.904474318E-1
2.600695313E0,-2.336740959E-3,9.748308182E0,3.971310258E-1
2.605657813E0,2.877830528E-2,9.640635490E0,3.779869974E-1
2.610621875E0,-1.908657700E-2,9.707635880E0,3.468815386E-1
2.615584375E0,-1.267586201E-1,9.731558800E0,4.066982567E-1
2.620548438E0,-6.454767287E-2,9.714808464E0,4.330153167E-1
2.625510938E0,-1.028357521E-1,9.702846527E0,4.545535445E-1
2.630475000E0,-1.339412183E-1,9.741134644E0,5.957348347E-1
2.635437500E0,-1.889695525E-1,9.702846527E0,6.914454103E-1
2.640401563E0,-2.392190546E-1,9.738740921E0,6.890512705E-1
2.645364063E0,-1.794023216E-1,9.729164124E0,6.914454103E-1
2.650326563E0,-1.482968628E-1,9.733952522E0,6.268403530E-1
2.655290625E0,-1.578640938E-1,9.738740921E0,5.909464359E-1
2.660253125E0,-1.028357521E-1,9.721991539E0,6.029078960E-1
2.665217188E0,-1.626524776E-1,9.717203140E0,5.670139790E-1
2.670179688E0,-1.626524776E-1,9.741134644E0,5.765908360E-1
2.675142188E0,-1.817965209E-1,9.693280220E0,5.885522366E-1
2.680106250E0,-1.506910622E-1,9.777029037E0,6.340133548E-1
2.685070313E0,-1.722197086E-1,9.717203140E0,7.105894685E-1
2.690032813E0,-1.267586201E-1,9.726778984E0,7.105894685E-1
2.694996875E0,-6.933607906E-2,9.669347763E0,6.962338090E-1
2.699959375E0,-1.908657700E-2,9.616703987E0,7.225509286E-1
2.704921875E0,-7.115567569E-3,9.573637009E0,6.603399515E-1
2.709884375E0,-4.721365869E-3,9.547310829E0,5.933406353E-1
2.714848438E0,-5.736507475E-2,9.511416435E0,4.760918021E-1
2.719810938E0,-8.369170874E-2,9.456387520E0,3.995156586E-1
2.724775000E0,-1.530852467E-1,9.494675636E0,3.971310258E-1
2.729737500E0,-1.435084492E-1,9.468349457E0,3.564487696E-1
2.734701563E0,-2.105077952E-1,9.391782761E0,4.210538864E-1
2.739664063E0,-2.344402373E-1,9.451600075E0,3.684101999E-1
2.744626563E0,-2.344402373E-1,9.458782196E0,5.143703222E-1
2.749590625E0,-1.961521655E-1,9.473137856E0,4.641303718E-1
2.754553125E0,-1.554698795E-1,9.442031860E0,3.827657998E-1
2.759517188E0,-1.794023216E-1,9.377428055E0,4.713034034E-1
2.764479688E0,-1.578640938E-1,9.396561623E0,3.923426270E-1
2.769443750E0,-8.608591557E-2,9.406138420E0,4.138808548E-1
2.774406250E0,-8.369170874E-2,9.437244415E0,5.263413191E-1
2.779368750E0,-1.339412183E-1,9.363062859E0,5.718024373E-1
2.784332813E0,-5.019204319E-2,9.458782196E0,5.885522366E-1
2.789295313E0,-4.779784381E-2,9.386994362E0,5.478699207E-1
2.794259375E0,-1.147971824E-1,9.456387520E0,6.723014116E-1
2.799221875E0,-1.004415527E-1,9.382205963E0,6.842628121E-1
2.804185938E0,-1.650466919E-1,9.403743744E0,7.034068704E-1
2.809148438E0,-1.865849346E-1,9.396561623E0,5.741965771E-1
2.814110938E0,-1.530852467E-1,9.432456017E0,4.928416312E-1
2.819075000E0,-1.530852467E-1,9.408533096E0,5.646198392E-1
2.824039063E0,-1.387200505E-1,9.351100922E0,4.808706343E-1
2.829001563E0,-1.435084492E-1,9.331956863E0,5.909464359E-1
2.833964063E0,-1.435084492E-1,9.348706245E0,6.124846935E-1
2.838928125E0,-7.172070444E-2,9.379811287E0,5.813696384E-1
2.843890625E0,-6.933607906E-2,9.384600639E0,6.076962948E-1
2.848854688E0,-7.890331000E-2,9.437244415E0,6.388017535E-1
2.853818750E0,-1.195855886E-1,9.427677155E0,5.933406353E-1
2.858779688E0,-8.369170874E-2,9.406138420E0,5.741965771E-1
2.863743750E0,-9.804734588E-2,9.437244415E0,4.856590331E-1
2.868706250E0,-1.315470189E-1,9.430061340E0,5.239470601E-1
2.873670313E0,-1.052203774E-1,9.418099403E0,4.713034034E-1
2.878632813E0,-1.411142498E-1,9.406138420E0,5.406969786E-1
2.883595313E0,-1.817965209E-1,9.442031860E0,5.406969786E-1
2.888559375E0,-6.933607906E-2,9.336745262E0,4.497651756E-1
2.893521875E0,-2.248634249E-1,9.238640785E0,4.928416312E-1
2.898485938E0,-1.602582783E-1,9.360677719E0,3.349105120E-1
2.903448438E0,-1.004415527E-1,9.430061340E0,3.755927682E-1
2.908412500E0,-9.086474776E-2,9.382205963E0,2.846610248E-1
2.913375000E0,-1.578640938E-1,9.300851822E0,2.774879634E-1
2.918337500E0,-1.602582783E-1,9.279312134E0,2.966320217E-1
2.923301563E0,-1.459026486E-1,9.257783890E0,2.248442620E-1
2.928264063E0,-1.171913818E-1,9.305639267E0,2.966320217E-1
2.933228125E0,-1.315470189E-1,9.305639267E0,2.774879634E-1
2.938190625E0,-1.411142498E-1,9.346312523E0,2.655169666E-1
2.943153125E0,-1.578640938E-1,9.365455627E0,3.396989107E-1
2.948117188E0,-1.506910622E-1,9.382205963E0,3.851599991E-1
2.953079688E0,-1.722197086E-1,9.394176483E0,2.463825047E-1
2.958043750E0,-2.344402373E-1,9.425282478E0,2.822668254E-1
2.963006250E0,-2.799013257E-1,9.473137856E0,2.679111660E-1
2.967970313E0,-2.487958670E-1,9.532955170E0,3.181606829E-1
2.972932813E0,-2.487958670E-1,9.585598946E0,3.899484277E-1
2.977895313E0,-2.440074682E-1,9.559281349E0,4.449863136E-1
2.982859375E0,-1.435084492E-1,9.621492386E0,4.832648337E-1
2.987821875E0,-2.176903933E-1,9.623887062E0,6.172634959E-1
2.992785938E0,-1.554698795E-1,9.674136162E0,5.454853773E-1
2.997748438E0,-1.506910622E-1,9.690885544E0,6.340133548E-1
3.002712500E0,-1.865849346E-1,9.695664406E0,7.393007874E-1
3.007675000E0,-1.937579513E-1,9.707635880E0,6.699072123E-1
3.012637500E0,-1.841907203E-1,9.750701904E0,6.842628121E-1
3.017601563E0,-1.674408913E-1,9.736346245E0,6.172634959E-1
3.022564063E0,-2.033347636E-1,9.750701904E0,7.105894685E-1
3.027528125E0,-1.219702139E-1,9.777029037E0,6.866570711E-1
3.032490625E0,-1.817965209E-1,9.733952522E0,6.603399515E-1
3.037454688E0,-2.033347636E-1,9.760279655E0,7.871560454E-1
3.042417188E0,-1.865849346E-1,9.726778984E0,7.943387032E-1
3.047379688E0,-1.315470189E-1,9.712413788E0,7.512621880E-1
3.052343750E0,-1.387200505E-1,9.686098099E0,7.225509286E-1
3.057306250E0,-1.722197086E-1,9.647809982E0,6.603399515E-1
3.062270313E0,-1.363354176E-1,9.578415871E0,5.622351766E-1
3.067232813E0,-8.847054094E-2,9.513810158E0,4.928416312E-1
3.072196875E0,-5.497087166E-2,9.525781631E0,5.550525784E-1
3.077159375E0,-4.300943762E-2,9.535348892E0,4.282364845E-1
3.082121875E0,-6.694187969E-2,9.468349457E0,4.258422852E-1
3.087085938E0,-8.847054094E-2,9.473137856E0,4.473805130E-1
3.092048438E0,-4.300943762E-2,9.511416435E0,5.383027196E-1
3.097012500E0,-7.172070444E-2,9.482705116E0,5.095914602E-1
3.101975000E0,2.451662440E-3,9.499455452E0,4.784860015E-1
3.106939063E0,-7.650911063E-2,9.501849174E0,4.736976027E-1
3.111901563E0,-7.650911063E-2,9.501849174E0,5.215529203E-1
3.116864063E0,-1.076145768E-1,9.465954781E0,4.497651756E-1
3.121828125E0,-7.890331000E-2,9.506637573E0,4.880532324E-1
3.126790625E0,-1.052203774E-1,9.580809593E0,5.909464359E-1
3.131754688E0,-9.086474776E-2,9.532955170E0,5.718024373E-1
3.136718750E0,-1.171913818E-1,9.463561058E0,6.340133548E-1
3.141681250E0,-5.258624628E-2,9.523387909E0,4.689091742E-1
3.146643750E0,-3.583640978E-2,9.473137856E0,4.019098580E-1
3.151606250E0,-4.540364072E-2,9.492281914E0,3.492661417E-1
3.156570313E0,-5.975927413E-2,9.403743744E0,3.277374804E-1
3.161532813E0,-1.124029830E-1,9.415705681E0,3.803811967E-1
3.166496875E0,-3.583640978E-2,9.427677155E0,4.258422852E-1
3.171459375E0,-1.459026486E-1,9.418099403E0,3.923426270E-1
3.176423438E0,-1.722197086E-1,9.375033379E0,4.234480858E-1
3.181385938E0,-1.578640938E-1,9.386994362E0,5.263413191E-1
3.186348438E0,-1.674408913E-1,9.451600075E0,5.454853773E-1
3.191312500E0,-1.195855886E-1,9.413311958E0,4.736976027E-1
3.196275000E0,-1.722197086E-1,9.403743744E0,5.311201215E-1
3.201239063E0,-1.124029830E-1,9.420494080E0,4.784860015E-1
3.206201563E0,-7.172070444E-2,9.379811287E0,5.000146627E-1
3.211164063E0,-1.363354176E-1,9.391782761E0,4.497651756E-1
3.216128125E0,-1.650466919E-1,9.389389038E0,4.760918021E-1
3.221090625E0,-1.243644133E-1,9.499455452E0,4.138808548E-1
3.226054688E0,-1.411142498E-1,9.437244415E0,4.808706343E-1
3.231017188E0,-1.626524776E-1,9.453993797E0,5.502641797E-1
3.235981250E0,-1.195855886E-1,9.516204834E0,4.904474318E-1
3.240943750E0,-9.086474776E-2,9.506637573E0,5.263413191E-1
3.245907813E0,-1.052203774E-1,9.489887238E0,5.454853773E-1
3.250870313E0,-1.889695525E-1,9.480310440E0,5.670139790E-1
3.255832813E0,-1.746139228E-1,9.494675636E0,5.311201215E-1
3.260796875E0,-1.171913818E-1,9.497060776E0,5.550525784E-1
3.265759375E0,-1.267586201E-1,9.444426537E0,5.981194377E-1
3.270721875E0,-1.698351055E-1,9.485099792E0,5.718024373E-1
3.275685938E0,-9.804734588E-2,9.530560493E0,6.220518947E-1
3.280648438E0,-1.339412183E-1,9.520993233E0,6.148692966E-1
3.285612500E0,-2.865380608E-2,9.568848610E0,6.364075541E-1
3.290575000E0,-3.583640978E-2,9.532955170E0,6.029078960E-1
3.295539063E0,-2.625960298E-2,9.458782196E0,5.191587210E-1
3.300501563E0,-6.933607906E-2,9.501849174E0,5.095914602E-1
3.305464063E0,-9.565314651E-2,9.485099792E0,4.904474318E-1
3.310428125E0,-7.172070444E-2,9.571242332E0,4.784860015E-1
3.315390625E0,-6.215347722E-2,9.530560493E0,4.880532324E-1
3.320354688E0,-4.061523825E-2,9.554492950E0,5.502641797E-1
3.325317188E0,-1.190397050E-2,9.607136726E0,5.454853773E-1
3.330281250E0,-7.115567569E-3,9.621492386E0,5.646198392E-1
3.335243750E0,-3.583640978E-2,9.643030167E0,4.617361724E-1
3.340206250E0,-1.669237576E-2,9.571242332E0,3.588429689E-1
3.345170313E0,-3.822103515E-2,9.616703987E0,4.114866555E-1
3.350132813E0,-2.625960298E-2,9.599953651E0,3.588429689E-1
3.355096875E0,-3.583640978E-2,9.616703987E0,4.617361724E-1
3.360059375E0,-7.411490381E-2,9.681308746E0,5.359085202E-1
3.365023438E0,-4.721365869E-3,9.671741486E0,6.053020358E-1
3.369985938E0,1.202846877E-2,9.647809982E0,6.100904346E-1
3.374948438E0,1.680729724E-2,9.626279831E0,6.172634959E-1
3.379912500E0,-2.386540174E-2,9.650202751E0,6.292344928E-1
3.384875000E0,-5.019204319E-2,9.695664406E0,5.885522366E-1
3.389839063E0,-9.804734588E-2,9.736346245E0,5.909464359E-1
3.394801563E0,-8.608591557E-2,9.674136162E0,5.646198392E-1
3.399765625E0,-1.794023216E-1,9.726778984E0,5.502641797E-1
3.404728125E0,-1.004415527E-1,9.698058128E0,4.928416312E-1
3.409690625E0,-1.004415527E-1,9.750701904E0,4.282364845E-1
3.414654688E0,-1.411142498E-1,9.712413788E0,4.760918021E-1
3.419617188E0,-1.411142498E-1,9.707635880E0,5.718024373E-1
3.424581250E0,-7.411490381E-2,9.788990021E0,6.244460940E-1
3.429543750E0,-9.325893968E-2,9.762663841E0,6.435901523E-1
3.434507813E0,-2.625960298E-2,9.733952522E0,6.603399515E-1
3.439470313E0,-9.565314651E-2,9.791384697E0,6.100904346E-1
3.444432813E0,-9.086474776E-2,9.774634361E0,5.933406353E-1
3.449396875E0,-1.650466919E-1,9.743529320E0,6.770898700E-1
3.454359375E0,-1.817965209E-1,9.779414177E0,6.794840097E-1
3.459323438E0,-2.487958670E-1,9.793779373E0,7.081953287E-1
3.464285938E0,-2.129019946E-1,9.870346069E0,7.488679886E-1
3.469250000E0,-2.224692255E-1,9.817702293E0,6.699072123E-1
3.474212500E0,-1.698351055E-1,9.841633797E0,7.034068704E-1
3.479175000E0,-1.363354176E-1,9.800951958E0,6.770898700E-1
3.484139063E0,-9.325893968E-2,9.887095451E0,7.081953287E-1
3.489101563E0,-9.804734588E-2,9.894268990E0,7.225509286E-1
3.494065625E0,-4.300943762E-2,9.858384132E0,6.723014116E-1
3.499028125E0,-4.540364072E-2,9.858384132E0,7.393007874E-1
3.503992188E0,-6.933607906E-2,9.848807335E0,6.268403530E-1
3.508954688E0,1.680729724E-2,9.889489174E0,6.148692966E-1
3.513917188E0,5.746084207E-5,9.934949875E0,5.670139790E-1
3.518881250E0,-6.215347722E-2,9.932557106E0,5.718024373E-1
3.523843750E0,-7.411490381E-2,9.913412094E0,6.029078960E-1
3.528807813E0,-4.779784381E-2,9.870346069E0,6.148692966E-1
3.533770313E0,-9.509769268E-3,9.872738838E0,6.794840097E-1
3.538732813E0,-1.190397050E-2,9.930162430E0,6.818686724E-1
3.543696875E0,-7.411490381E-2,9.920595169E0,6.699072123E-1
3.548659375E0,-1.124029830E-1,9.937344551E0,7.129837275E-1
3.553623438E0,-1.076145768E-1,1.001870060E1,6.962338090E-1
3.558585938E0,-1.028357521E-1,1.000913239E1,7.105894685E-1
3.563550000E0,-1.459026486E-1,1.001391125E1,6.938396692E-1
3.568512500E0,-1.219702139E-1,1.010244942E1,8.110885024E-1
3.573476563E0,-1.339412183E-1,1.002826691E1,9.115875363E-1
3.578439063E0,-1.219702139E-1,1.011680508E1,9.020106792E-1
3.583401563E0,-9.325893968E-2,1.010484314E1,9.714042544E-1
3.588365625E0,7.240065839E-3,1.004741096E1,8.134731650E-1
3.593328125E0,-4.061523825E-2,1.009526634E1,8.374055624E-1
3.598292188E0,-2.865380608E-2,1.010962200E1,8.182615638E-1
3.603254688E0,3.116292879E-2,1.011201668E1,7.871560454E-1
3.608217188E0,3.355713189E-2,1.013115978E1,7.991175056E-1
3.613181250E0,1.364407688E-1,1.007134342E1,8.254441619E-1
3.618143750E0,1.292581707E-1,1.014312172E1,7.728003860E-1
3.623107813E0,6.466259807E-2,1.018140984E1,8.326171637E-1
3.628070313E0,1.053352952E-1,1.011441040E1,8.326171637E-1
3.633032813E0,6.945100427E-2,1.015748692E1,8.685110211E-1
3.637996875E0,4.073973373E-2,1.020055389E1,8.685110211E-1
3.642959375E0,1.441309415E-2,1.012637234E1,9.020106792E-1
3.647923438E0,-1.190397050E-2,1.011441040E1,8.326171637E-1
3.652885938E0,-8.608591557E-2,1.005698872E1,8.421939611E-1
3.657850000E0,-1.076145768E-1,1.010005474E1,8.015117049E-1
3.662812500E0,-1.435084492E-1,1.004023838E1,7.943387032E-1
3.667775000E0,-1.435084492E-1,9.997160912E0,8.709052205E-1
3.672739063E0,-1.794023216E-1,9.997160912E0,8.182615638E-1
3.677701563E0,-1.411142498E-1,1.001151752E1,8.780878186E-1
3.682665625E0,-1.291528195E-1,9.946911812E0,8.374055624E-1
3.687628125E0,-1.291528195E-1,9.985199928E0,8.732994199E-1
3.692592188E0,-1.865849346E-1,9.980412483E0,8.613380194E-1
3.697553125E0,-1.770081222E-1,9.994767189E0,8.302229643E-1
3.702517188E0,-1.195855886E-1,9.980412483E0,7.919444442E-1
3.707481250E0,-8.847054094E-2,1.003066158E1,7.656177878E-1
3.712443750E0,9.634267539E-3,9.999555588E0,7.680120468E-1
3.717407813E0,2.638410218E-2,9.937344551E0,7.704062462E-1
3.722370313E0,3.834553435E-2,9.975632668E0,7.105894685E-1
3.727332813E0,1.005468965E-1,1.000195026E1,7.919444442E-1
3.732296875E0,1.920149848E-2,9.968450546E0,7.440891862E-1
3.737259375E0,3.834553435E-2,9.939739227E0,6.986184716E-1
3.742221875E0,3.116292879E-2,9.999555588E0,7.321181893E-1
3.747185938E0,3.834553435E-2,1.004263210E1,7.225509286E-1
3.752148438E0,7.240065839E-3,9.954094887E0,7.919444442E-1
3.757112500E0,-7.115567569E-3,1.001151752E1,7.943387032E-1
3.762075000E0,-3.822103515E-2,9.982805252E0,8.015117049E-1
3.767039063E0,5.509537086E-2,9.937344551E0,8.445882201E-1
3.772001563E0,2.451662440E-3,1.000195026E1,8.828666210E-1
3.776964063E0,4.845864139E-3,1.002588272E1,8.206557035E-1
3.781928125E0,2.877830528E-2,1.007851696E1,8.158673048E-1
3.786890625E0,6.945100427E-2,9.999555588E0,8.924434781E-1
3.791853125E0,1.029410958E-1,9.934949875E0,7.871560454E-1
3.796817188E0,5.988377333E-2,9.913412094E0,8.063001037E-1
3.801781250E0,5.748957023E-2,9.942132950E0,7.967232466E-1
3.806743750E0,7.240065839E-3,1.000913239E1,7.680120468E-1
3.811707813E0,1.202846877E-2,9.963662148E0,7.632332444E-1
3.816670313E0,2.877830528E-2,9.925383568E0,7.584447861E-1
3.821634375E0,1.441309415E-2,1.000434399E1,7.321181893E-1
3.826596875E0,-4.779784381E-2,9.946911812E0,8.326171637E-1
3.831560938E0,-2.865380608E-2,9.944517136E0,7.488679886E-1
3.836523438E0,-5.019204319E-2,9.970844269E0,8.541554213E-1
3.841485938E0,-5.019204319E-2,9.932557106E0,7.416949272E-1
3.846448438E0,-1.387200505E-1,9.922988892E0,8.709052205E-1
3.851412500E0,-1.315470189E-1,9.946911812E0,8.732994199E-1
3.856375000E0,-2.865380608E-2,9.927767754E0,8.900492787E-1
3.861337500E0,-4.721365869E-3,9.889489174E0,8.924434781E-1
3.866301563E0,6.945100427E-2,9.834450722E0,7.369065285E-1
3.871264063E0,8.859504014E-2,9.870346069E0,7.656177878E-1
3.876228125E0,1.029410958E-1,9.860768318E0,8.206557035E-1
3.881190625E0,7.663360238E-2,9.889489174E0,7.584447861E-1
3.886154688E0,1.196909323E-1,9.896661758E0,7.991175056E-1
3.891117188E0,4.791276529E-2,9.870346069E0,7.895502448E-1
3.896081250E0,2.638410218E-2,9.884700775E0,8.661168218E-1
3.901043750E0,6.466259807E-2,9.870346069E0,8.709052205E-1
3.906006250E0,6.466259807E-2,9.879913330E0,8.613380194E-1
3.910970313E0,-2.865380608E-2,9.961267471E0,8.852608800E-1
3.915934375E0,-6.933607906E-2,9.934949875E0,8.637226820E-1
3.920896875E0,-1.004415527E-1,9.961267471E0,9.857599139E-1
3.925859375E0,-5.975927413E-2,9.932557106E0,9.737984538E-1
3.930823438E0,-4.300943762E-2,9.999555588E0,8.996165395E-1
3.935785938E0,-6.215347722E-2,9.994767189E0,9.020106792E-1
3.940748438E0,-9.804734588E-2,9.994767189E0,8.302229643E-1
3.945712500E0,-9.086474776E-2,9.937344551E0,7.943387032E-1
3.950675000E0,-4.540364072E-2,9.908634186E0,7.105894685E-1
3.955639063E0,-7.650911063E-2,9.963662148E0,7.728003860E-1
3.960601563E0,-1.291528195E-1,9.894268990E0,7.823676467E-1
3.965565625E0,-8.608591557E-2,9.829663277E0,7.177625299E-1
3.970528125E0,-5.736507475E-2,9.815307617E0,7.345123291E-1
3.975490625E0,-5.975927413E-2,9.865556717E0,6.770898700E-1
3.980454688E0,-1.147971824E-1,9.839240074E0,6.794840097E-1
3.985417188E0,-9.325893968E-2,9.786596298E0,6.890512705E-1
3.990381250E0,-1.626524776E-1,9.777029037E0,7.177625299E-1
3.995343750E0,-1.506910622E-1,9.791384697E0,7.943387032E-1
4.000307813E0,-1.363354176E-1,9.757884979E0,6.603399515E-1
4.005271875E0,-1.219702139E-1,9.762663841E0,5.981194377E-1
4.010232813E0,-8.608591557E-2,9.767452240E0,6.746956110E-1
4.015196875E0,-1.865849346E-1,9.719596863E0,7.034068704E-1
4.020159375E0,-1.315470189E-1,9.731558800E0,7.321181893E-1
4.025123438E0,-1.315470189E-1,9.710029602E0,7.488679886E-1
4.030085938E0,-1.243644133E-1,9.784202576E0,7.943387032E-1
4.035048438E0,-1.578640938E-1,9.767452240E0,7.799734473E-1
4.040014063E0,-1.028357521E-1,9.774634361E0,9.091932774E-1
4.044976563E0,-1.650466919E-1,9.760279655E0,8.397997618E-1
4.049939063E0,-2.224692255E-1,9.769846916E0,9.522601962E-1
4.054903125E0,-1.817965209E-1,9.767452240E0,8.924434781E-1
4.059865625E0,-1.339412183E-1,9.784202576E0,9.091932774E-1
4.064828125E0,-1.770081222E-1,9.774634361E0,8.134731650E-1
4.069790625E0,-1.124029830E-1,9.748308182E0,8.110885024E-1
4.074754688E0,-7.650911063E-2,9.788990021E0,7.153682709E-1
4.079717188E0,-9.325893968E-2,9.755491257E0,8.158673048E-1
4.084681250E0,-7.890331000E-2,9.769846916E0,7.608389854E-1
4.089645313E0,-9.565314651E-2,9.750701904E0,7.871560454E-1
4.094606250E0,-9.509769268E-3,9.702846527E0,7.943387032E-1
4.099570313E0,-2.336740959E-3,9.717203140E0,9.187605381E-1
4.104532813E0,-5.975927413E-2,9.733952522E0,8.732994199E-1
4.109498438E0,-5.258624628E-2,9.659780502E0,7.704062462E-1
4.114459375E0,-6.454767287E-2,9.659780502E0,7.153682709E-1
4.119423438E0,-8.847054094E-2,9.614309311E0,7.345123291E-1
4.124385938E0,-3.822103515E-2,9.681308746E0,7.177625299E-1
4.129348438E0,-1.052203774E-1,9.643030167E0,6.603399515E-1
4.134312500E0,-9.086474776E-2,9.640635490E0,5.430911183E-1
4.139275000E0,-9.804734588E-2,9.640635490E0,6.172634959E-1
4.144239063E0,-1.076145768E-1,9.626279831E0,6.005136967E-1
4.149201563E0,-6.215347722E-2,9.666953087E0,6.459843516E-1
4.154165625E0,-5.497087166E-2,9.690885544E0,7.010126710E-1
4.159128125E0,2.877830528E-2,9.650202751E0,6.770898700E-1
4.164090625E0,5.748957023E-2,9.700452805E0,6.914454103E-1
4.169054688E0,8.620083332E-2,9.705241203E0,7.249451280E-1
4.174017188E0,6.466259807E-2,9.779414177E0,7.656177878E-1
4.178981250E0,1.077295020E-1,9.748308182E0,8.709052205E-1
4.183943750E0,9.098923951E-2,9.765057564E0,8.445882201E-1
4.188907813E0,3.834553435E-2,9.817702293E0,8.613380194E-1
4.193870313E0,-3.583640978E-2,9.798557281E0,8.972222805E-1
4.198832813E0,-4.721365869E-3,9.824884415E0,8.421939611E-1
4.203796875E0,-1.190397050E-2,9.879913330E0,8.015117049E-1
4.208759375E0,-5.258624628E-2,9.867951393E0,8.421939611E-1
4.213723438E0,-5.736507475E-2,9.846412659E0,8.063001037E-1
4.218685938E0,9.634267539E-3,9.939739227E0,8.517611623E-1
4.223650000E0,-6.694187969E-2,9.980412483E0,8.374055624E-1
4.228612500E0,-9.509769268E-3,9.966055870E0,8.063001037E-1
4.233575000E0,-3.104800731E-2,1.001870060E1,7.823676467E-1
4.238539063E0,-7.890331000E-2,9.982805252E0,7.177625299E-1
4.243501563E0,-7.172070444E-2,1.008330441E1,7.010126710E-1
4.248465625E0,-1.435084492E-1,9.997160912E0,7.536563873E-1
4.253428125E0,-1.339412183E-1,1.002348804E1,7.608389854E-1
4.258392188E0,-1.722197086E-1,9.961267471E0,7.823676467E-1
4.263356250E0,-1.913637519E-1,9.946911812E0,7.129837275E-1
4.268318750E0,-1.578640938E-1,1.000195026E1,6.603399515E-1
4.273281250E0,-2.176903933E-1,9.973237991E0,7.393007874E-1
4.278243750E0,-1.722197086E-1,9.985199928E0,7.560505867E-1
4.283207813E0,-1.746139228E-1,1.001630592E1,7.488679886E-1
4.288170313E0,-1.124029830E-1,1.001151752E1,7.297335267E-1
4.293134375E0,-1.171913818E-1,1.004501629E1,7.393007874E-1
4.298096875E0,-1.578640938E-1,1.004980564E1,8.134731650E-1
4.303059375E0,-9.086474776E-2,1.004023838E1,8.254441619E-1
4.308023438E0,-8.608591557E-2,1.008809376E1,8.421939611E-1
4.312985938E0,-7.650911063E-2,1.013594818E1,8.015117049E-1
4.317950000E0,-1.028357521E-1,1.010484314E1,8.948376179E-1
4.322912500E0,-1.028357521E-1,1.015030479E1,8.852608800E-1
4.327876563E0,-1.124029830E-1,1.011919880E1,8.756936789E-1
4.332839063E0,-9.565314651E-2,1.015509319E1,8.924434781E-1
4.337801563E0,-9.804734588E-2,1.012876606E1,8.541554213E-1
4.342765625E0,-5.497087166E-2,1.018859291E1,8.876550794E-1
4.347728125E0,-4.540364072E-2,1.014312172E1,8.517611623E-1
4.352692188E0,-5.497087166E-2,1.011919880E1,8.996165395E-1
4.357654688E0,-1.004415527E-1,1.012637234E1,9.426929951E-1
4.362618750E0,-9.086474776E-2,1.006416130E1,9.857599139E-1
4.367581250E0,-9.565314651E-2,1.009288216E1,9.283373356E-1
4.372543750E0,-1.626524776E-1,1.007851696E1,8.780878186E-1
4.377507813E0,-1.698351055E-1,1.009288216E1,8.732994199E-1
4.382470313E0,-1.722197086E-1,1.002348804E1,8.565496206E-1
4.387434375E0,-1.650466919E-1,1.003066158E1,8.517611623E-1
4.392396875E0,-1.578640938E-1,1.006416130E1,8.732994199E-1
4.397359375E0,-1.291528195E-1,1.004501629E1,8.565496206E-1
4.402323438E0,-1.004415527E-1,1.000673866E1,8.661168218E-1
4.407285938E0,-4.300943762E-2,9.980412483E0,9.594427943E-1
4.412250000E0,-6.454767287E-2,9.920595169E0,8.804724813E-1
4.417212500E0,-7.172070444E-2,9.970844269E0,9.091932774E-1
4.422176563E0,-7.650911063E-2,9.970844269E0,9.067991376E-1
4.427139063E0,-7.890331000E-2,9.911018372E0,8.086943030E-1
4.432101563E0,-4.779784381E-2,9.867951393E0,8.732994199E-1
4.437065625E0,-2.865380608E-2,9.836845398E0,8.350113630E-1
4.442028125E0,-8.847054094E-2,9.820096016E0,8.374055624E-1
4.446992188E0,-3.104800731E-2,9.827268600E0,8.541554213E-1
4.451954688E0,-9.086474776E-2,9.899056435E0,8.326171637E-1
4.456918750E0,-6.694187969E-2,9.836845398E0,9.044048786E-1
4.461881250E0,9.634267539E-3,9.870346069E0,8.972222805E-1
4.466843750E0,4.791276529E-2,9.920595169E0,9.091932774E-1
4.471807813E0,-3.104800731E-2,9.851201057E0,9.259431362E-1
4.476770313E0,-8.369170874E-2,9.863162994E0,8.972222805E-1
4.481734375E0,-1.028357521E-1,9.846412659E0,8.278383017E-1
4.486696875E0,-1.411142498E-1,9.788990021E0,8.158673048E-1
4.491659375E0,-1.195855886E-1,9.834450722E0,7.584447861E-1
4.496623438E0,-8.129751682E-2,9.791384697E0,7.297335267E-1
4.501587500E0,-1.243644133E-1,9.743529320E0,7.034068704E-1
4.506550000E0,-1.770081222E-1,9.690885544E0,7.034068704E-1
4.511512500E0,-6.454767287E-2,9.714808464E0,6.866570711E-1
4.516476563E0,-1.004415527E-1,9.705241203E0,6.340133548E-1
4.521439063E0,-1.219702139E-1,9.695664406E0,6.220518947E-1
4.526401563E0,-9.804734588E-2,9.662164688E0,6.435901523E-1
4.531365625E0,-1.100087836E-1,9.654992104E0,6.029078960E-1
4.536328125E0,-1.171913818E-1,9.652597427E0,6.172634959E-1
4.541292188E0,-1.770081222E-1,9.702846527E0,6.364075541E-1
4.546256250E0,-2.009405643E-1,9.676529884E0,6.507631540E-1
4.551218750E0,-1.841907203E-1,9.678915024E0,6.603399515E-1
4.556181250E0,-7.650911063E-2,9.717203140E0,6.890512705E-1
4.561145313E0,-1.052203774E-1,9.702846527E0,6.794840097E-1
4.566107813E0,-9.325893968E-2,9.719596863E0,7.488679886E-1
4.571070313E0,-1.147971824E-1,9.753096581E0,8.493670225E-1
4.576034375E0,-8.847054094E-2,9.786596298E0,8.852608800E-1
4.580996875E0,-1.770081222E-1,9.788990021E0,8.852608800E-1
4.585960938E0,-1.650466919E-1,9.777029037E0,8.972222805E-1
4.590923438E0,-1.746139228E-1,9.817702293E0,7.943387032E-1
4.595885938E0,-1.722197086E-1,9.781807899E0,7.847618461E-1
4.600850000E0,-2.129019946E-1,9.781807899E0,7.560505867E-1
4.605812500E0,-2.033347636E-1,9.855990410E0,7.440891862E-1
4.610776563E0,-2.727187276E-1,9.793779373E0,7.775887847E-1
4.615739063E0,-1.841907203E-1,9.805740356E0,7.991175056E-1
4.620703125E0,-1.602582783E-1,9.872738838E0,8.469727635E-1
4.625665625E0,-1.387200505E-1,9.810519218E0,8.948376179E-1
4.630628125E0,-1.602582783E-1,9.803345680E0,8.661168218E-1
4.635592188E0,-1.387200505E-1,9.836845398E0,8.421939611E-1
4.640554688E0,-1.243644133E-1,9.853595734E0,7.871560454E-1
4.645518750E0,-9.086474776E-2,9.872738838E0,8.517611623E-1
4.650481250E0,-1.052203774E-1,9.887095451E0,8.039059043E-1
4.655445313E0,-7.890331000E-2,9.839240074E0,8.158673048E-1
4.660407813E0,-9.325893968E-2,9.891883850E0,8.063001037E-1
4.665371875E0,-8.129751682E-2,9.891883850E0,8.948376179E-1
4.670334375E0,-1.028357521E-1,9.906239510E0,8.756936789E-1
4.675296875E0,-1.100087836E-1,9.932557106E0,9.307219982E-1
4.680260938E0,-1.674408913E-1,9.913412094E0,1.036009431E0
4.685223438E0,-1.794023216E-1,9.987594604E0,9.977213144E-1
4.690187500E0,-1.482968628E-1,9.951700211E0,9.809715152E-1
4.695150000E0,-2.009405643E-1,9.963662148E0,8.924434781E-1
4.700112500E0,-1.267586201E-1,1.003784370E1,8.517611623E-1
4.705076563E0,-1.722197086E-1,9.958883286E0,7.895502448E-1
4.710039063E0,-9.086474776E-2,9.987594604E0,7.201567292E-1
4.715003125E0,-1.363354176E-1,9.939739227E0,6.938396692E-1
4.719965625E0,-8.369170874E-2,9.978017807E0,7.369065285E-1
4.724928125E0,-1.363354176E-1,9.901451111E0,7.225509286E-1
4.729892188E0,-1.171913818E-1,9.891883850E0,7.871560454E-1
4.734854688E0,-1.722197086E-1,9.882307053E0,7.153682709E-1
4.739818750E0,-1.506910622E-1,9.867951393E0,7.751946449E-1
4.744781250E0,-1.698351055E-1,9.863162994E0,7.967232466E-1
4.749745313E0,-1.698351055E-1,9.867951393E0,8.278383017E-1
4.754707813E0,-1.961521655E-1,9.918201447E0,7.058010697E-1
4.759670313E0,-2.272576243E-1,9.863162994E0,7.512621880E-1
4.764634375E0,-2.392190546E-1,9.879913330E0,8.278383017E-1
4.769596875E0,-2.392190546E-1,9.851201057E0,8.230499029E-1
4.774560938E0,-2.440074682E-1,9.853595734E0,8.445882201E-1
4.779523438E0,-2.392190546E-1,9.855990410E0,7.751946449E-1
4.784487500E0,-2.655456960E-1,9.800951958E0,7.010126710E-1
4.789450000E0,-2.535746992E-1,9.812912941E0,7.775887847E-1
4.794412500E0,-2.535746992E-1,9.822490692E0,7.680120468E-1
4.799376563E0,-2.320460379E-1,9.812912941E0,8.063001037E-1
4.804339063E0,-1.865849346E-1,9.839240074E0,7.704062462E-1
4.809303125E0,-1.411142498E-1,9.762663841E0,7.704062462E-1
4.814265625E0,-9.804734588E-2,9.767452240E0,7.105894685E-1
4.819229688E0,-6.215347722E-2,9.796163559E0,7.464833260E-1
4.824192188E0,-1.435084492E-1,9.800951958E0,8.326171637E-1
4.829154688E0,-1.195855886E-1,9.760279655E0,7.775887847E-1
4.834118750E0,-9.565314651E-2,9.774634361E0,8.134731650E-1
4.839081250E0,-5.258624628E-2,9.836845398E0,8.278383017E-1
4.844045313E0,-1.052203774E-1,9.844018936E0,7.823676467E-1
4.849007813E0,-1.195855886E-1,9.788990021E0,7.488679886E-1
4.853971875E0,-1.171913818E-1,9.724386215E0,7.919444442E-1
4.858934375E0,-6.933607906E-2,9.769846916E0,7.177625299E-1
4.863896875E0,-1.626524776E-1,9.714808464E0,8.326171637E-1
4.868860938E0,-1.267586201E-1,9.810519218E0,7.297335267E-1
4.873823438E0,-1.315470189E-1,9.733952522E0,6.746956110E-1
4.878787500E0,-1.195855886E-1,9.781807899E0,7.943387032E-1
4.883750000E0,-1.291528195E-1,9.784202576E0,7.656177878E-1
4.888714063E0,-1.052203774E-1,9.769846916E0,7.632332444E-1
4.893676563E0,-1.339412183E-1,9.788990021E0,8.493670225E-1
4.898639063E0,-1.602582783E-1,9.791384697E0,7.967232466E-1
4.903603125E0,-1.650466919E-1,9.805740356E0,8.948376179E-1
4.908565625E0,-1.985463500E-1,9.805740356E0,8.015117049E-1
4.913529688E0,-2.081135809E-1,9.822490692E0,8.015117049E-1
4.918492188E0,-1.363354176E-1,9.851201057E0,8.517611623E-1
4.923456250E0,-1.817965209E-1,9.863162994E0,7.536563873E-1
4.928418750E0,-1.698351055E-1,9.853595734E0,7.536563873E-1
4.933381250E0,-9.325893968E-2,9.827268600E0,7.895502448E-1
4.938345313E0,-1.674408913E-1,9.788990021E0,7.967232466E-1
4.943307813E0,-1.482968628E-1,9.824884415E0,7.488679886E-1
4.948271875E0,-1.147971824E-1,9.846412659E0,7.393007874E-1
4.953234375E0,-7.650911063E-2,9.906239510E0,8.182615638E-1
4.958198438E0,-1.363354176E-1,9.918201447E0,8.086943030E-1
4.963160938E0,-1.195855886E-1,9.899056435E0,8.493670225E-1
4.968123438E0,-1.363354176E-1,9.946911812E0,8.972222805E-1
4.973087500E0,-1.267586201E-1,9.925383568E0,7.823676467E-1
4.978050000E0,-1.076145768E-1,9.937344551E0,8.206557035E-1
4.983012500E0,-1.195855886E-1,9.932557106E0,7.823676467E-1
4.987976563E0,-1.506910622E-1,9.963662148E0,7.034068704E-1
4.992940625E0,-2.033347636E-1,1.001391125E1,7.919444442E-1
4.997903125E0,-1.770081222E-1,9.925383568E0,8.421939611E-1
5.002865625E0,-1.147971824E-1,9.994767189E0,8.732994199E-1
5.007829688E0,-1.626524776E-1,9.958883286E0,8.158673048E-1
5.012792188E0,-1.650466919E-1,9.961267471E0,8.421939611E-1
5.017754688E0,-1.315470189E-1,9.954094887E0,8.589437604E-1
5.022718750E0,-1.147971824E-1,9.985199928E0,8.254441619E-1
5.027682813E0,-1.219702139E-1,9.992383003E0,8.086943030E-1
5.032645313E0,-9.565314651E-2,1.006894875E1,8.374055624E-1
5.037607813E0,-1.147971824E-1,9.966055870E0,7.321181893E-1
5.042570313E0,-2.081135809E-1,9.944517136E0,7.464833260E-1
5.047534375E0,-1.626524776E-1,1.002348804E1,6.459843516E-1
5.052496875E0,-1.937579513E-1,9.946911812E0,7.440891862E-1
5.057460938E0,-1.028357521E-1,9.918201447E0,7.488679886E-1
5.062423438E0,-9.804734588E-2,9.913412094E0,7.081953287E-1
5.067385938E0,9.634267539E-3,9.851201057E0,8.421939611E-1
5.072351563E0,1.441309415E-2,9.934949875E0,7.273392677E-1
5.077314063E0,-1.908657700E-2,9.884700775E0,7.584447861E-1
5.082276563E0,-1.429817267E-2,9.889489174E0,7.416949272E-1
5.087239063E0,-6.215347722E-2,9.894268990E0,7.895502448E-1
5.092203125E0,-7.650911063E-2,9.915806770E0,7.393007874E-1
5.097165625E0,-1.052203774E-1,9.920595169E0,6.555515528E-1
5.102129688E0,-1.746139228E-1,9.927767754E0,7.129837275E-1
5.107092188E0,-2.440074682E-1,9.870346069E0,8.063001037E-1
5.112054688E0,-1.985463500E-1,9.932557106E0,7.632332444E-1
5.117018750E0,-2.368248552E-1,9.879913330E0,8.254441619E-1
5.121981250E0,-2.105077952E-1,9.870346069E0,8.445882201E-1
5.126943750E0,-2.296518236E-1,9.942132950E0,8.134731650E-1
5.131907813E0,-1.100087836E-1,9.961267471E0,8.852608800E-1
5.136870313E0,-1.124029830E-1,9.966055870E0,8.517611623E-1
5.141832813E0,-7.411490381E-2,1.001151752E1,8.541554213E-1
5.146796875E0,-8.847054094E-2,9.985199928E0,8.876550794E-1
5.151760938E0,-6.215347722E-2,1.004980564E1,8.565496206E-1
5.156723438E0,-9.565314651E-2,1.000913239E1,8.948376179E-1
5.161685938E0,-6.933607906E-2,1.000913239E1,8.661168218E-1
5.166650000E0,-5.497087166E-2,1.003066158E1,9.044048786E-1
5.171612500E0,-6.933607906E-2,1.001391125E1,9.402987957E-1
5.176576563E0,-9.804734588E-2,9.961267471E0,8.900492787E-1
5.181539063E0,-6.933607906E-2,9.958883286E0,8.063001037E-1
5.186503125E0,-1.028357521E-1,9.903844833E0,8.637226820E-1
5.191465625E0,-9.804734588E-2,9.920595169E0,8.134731650E-1
5.196428125E0,-1.554698795E-1,9.891883850E0,8.302229643E-1
5.201392188E0,-1.363354176E-1,9.872738838E0,8.039059043E-1
5.206354688E0,-1.004415527E-1,9.887095451E0,8.015117049E-1
5.211318750E0,-1.052203774E-1,9.832057953E0,7.704062462E-1
5.216281250E0,-1.937579513E-1,9.803345680E0,7.895502448E-1
5.221243750E0,-1.746139228E-1,9.812912941E0,7.153682709E-1
5.226207813E0,-1.722197086E-1,9.820096016E0,6.699072123E-1
5.231171875E0,-1.171913818E-1,9.803345680E0,7.273392677E-1
5.236134375E0,-8.129751682E-2,9.803345680E0,8.015117049E-1
5.241096875E0,-1.722197086E-1,9.786596298E0,7.464833260E-1
5.246060938E0,-5.497087166E-2,9.738740921E0,7.369065285E-1
5.251023438E0,-1.435084492E-1,9.832057953E0,8.039059043E-1
5.255987500E0,-1.004415527E-1,9.812912941E0,7.823676467E-1
5.260950000E0,-5.019204319E-2,9.841633797E0,8.039059043E-1
5.265914063E0,-9.804734588E-2,9.798557281E0,8.063001037E-1
5.270876563E0,-1.028357521E-1,9.836845398E0,8.445882201E-1
5.275840625E0,-6.454767287E-2,9.793779373E0,7.680120468E-1
5.280803125E0,-9.565314651E-2,9.767452240E0,7.225509286E-1
5.285765625E0,-1.698351055E-1,9.798557281E0,6.914454103E-1
5.290728125E0,-9.565314651E-2,9.836845398E0,8.134731650E-1
5.295692188E0,-7.890331000E-2,9.798557281E0,8.374055624E-1
5.300654688E0,-1.339412183E-1,9.793779373E0,8.685110211E-1
5.305618750E0,-9.804734588E-2,9.803345680E0,7.919444442E-1
5.310581250E0,-2.033347636E-1,9.805740356E0,7.656177878E-1
5.315545313E0,-1.100087836E-1,9.822490692E0,6.794840097E-1
5.320509375E0,-1.435084492E-1,9.748308182E0,6.842628121E-1
5.325471875E0,-1.602582783E-1,9.767452240E0,6.196576953E-1
5.330434375E0,-9.565314651E-2,9.796163559E0,6.746956110E-1
5.335396875E0,-3.822103515E-2,9.750701904E0,6.818686724E-1
5.340360938E0,2.159569971E-2,9.779414177E0,6.459843516E-1
5.345323438E0,5.746084207E-5,9.791384697E0,7.416949272E-1
5.350285938E0,4.845864139E-3,9.824884415E0,8.110885024E-1
5.355250000E0,-9.086474776E-2,9.810519218E0,7.919444442E-1
5.360212500E0,-1.339412183E-1,9.820096016E0,8.972222805E-1
5.365176563E0,-2.344402373E-1,9.791384697E0,8.182615638E-1
5.370139063E0,-1.530852467E-1,9.832057953E0,8.852608800E-1
5.375103125E0,-1.219702139E-1,9.860768318E0,7.608389854E-1
5.380065625E0,-1.052203774E-1,9.788990021E0,6.746956110E-1
5.385028125E0,-1.243644133E-1,9.829663277E0,6.053020358E-1
5.389992188E0,-1.602582783E-1,9.817702293E0,6.292344928E-1
5.394956250E0,-1.171913818E-1,9.879913330E0,7.081953287E-1
5.399918750E0,-1.411142498E-1,9.844018936E0,8.039059043E-1
5.404881250E0,-1.315470189E-1,9.846412659E0,7.751946449E-1
5.409845313E0,-1.267586201E-1,9.817702293E0,7.345123291E-1
5.414809375E0,-1.889695525E-1,9.889489174E0,7.034068704E-1
5.419770313E0,-1.961521655E-1,9.827268600E0,7.560505867E-1
5.424734375E0,-2.176903933E-1,9.848807335E0,6.938396692E-1
5.429696875E0,-2.272576243E-1,9.865556717E0,6.723014116E-1
5.434660938E0,-1.482968628E-1,9.884700775E0,7.081953287E-1
5.439623438E0,-1.722197086E-1,9.882307053E0,7.249451280E-1
5.444587500E0,-1.004415527E-1,9.875133514E0,7.369065285E-1
5.449551563E0,-1.124029830E-1,9.863162994E0,6.723014116E-1
5.454512500E0,-1.387200505E-1,9.865556717E0,6.962338090E-1
5.459476563E0,-1.315470189E-1,9.824884415E0,5.957348347E-1
5.464439063E0,-1.722197086E-1,9.858384132E0,5.837638378E-1
5.469403125E0,-2.152961940E-1,9.824884415E0,6.340133548E-1
5.474365625E0,-2.440074682E-1,9.824884415E0,5.861580372E-1
5.479329688E0,-2.033347636E-1,9.844018936E0,5.215529203E-1
5.484292188E0,-2.607572973E-1,9.855990410E0,6.316191554E-1
5.489254688E0,-2.416132689E-1,9.853595734E0,6.603399515E-1
5.494218750E0,-2.105077952E-1,9.844018936E0,6.866570711E-1
5.499181250E0,-1.746139228E-1,9.879913330E0,7.249451280E-1
5.504145313E0,-1.626524776E-1,9.951700211E0,6.794840097E-1
5.509107813E0,-7.411490381E-2,9.918201447E0,7.058010697E-1
5.514070313E0,-4.300943762E-2,9.913412094E0,5.622351766E-1
5.519034375E0,2.159569971E-2,9.930162430E0,6.029078960E-1
5.523996875E0,-2.625960298E-2,9.942132950E0,5.598409176E-1
5.528960938E0,-7.115567569E-3,9.949306488E0,5.957348347E-1
5.533923438E0,1.029410958E-1,9.920595169E0,6.196576953E-1
5.538887500E0,4.313393682E-2,9.992383003E0,6.603399515E-1
5.543850000E0,1.441309415E-2,9.920595169E0,6.770898700E-1
5.548812500E0,-3.104800731E-2,9.906239510E0,7.488679886E-1
5.553776563E0,-9.325893968E-2,9.903844833E0,6.962338090E-1
5.558739063E0,-7.650911063E-2,9.978017807E0,7.751946449E-1
5.563703125E0,-2.147120051E-2,9.932557106E0,8.063001037E-1
5.568665625E0,-9.509769268E-3,9.987594604E0,7.464833260E-1
5.573629688E0,-3.822103515E-2,9.994767189E0,7.847618461E-1
5.578592188E0,-5.258624628E-2,9.887095451E0,7.058010697E-1
5.583554688E0,-5.736507475E-2,9.939739227E0,8.206557035E-1
5.588518750E0,-1.147971824E-1,1.001870060E1,8.517611623E-1
5.593481250E0,-8.847054094E-2,9.958883286E0,8.397997618E-1
5.598445313E0,-1.124029830E-1,9.958883286E0,8.015117049E-1
5.603407813E0,-1.052203774E-1,9.982805252E0,8.278383017E-1
5.608371875E0,-1.291528195E-1,9.973237991E0,8.015117049E-1
5.613334375E0,-1.363354176E-1,9.994767189E0,8.852608800E-1
5.618296875E0,-1.267586201E-1,1.005698872E1,7.871560454E-1
5.623260938E0,-1.435084492E-1,9.982805252E0,9.426929951E-1
5.628223438E0,-1.052203774E-1,1.002588272E1,9.187605381E-1
5.633187500E0,-1.315470189E-1,1.004980564E1,9.546543956E-1
5.638150000E0,-8.369170874E-2,1.005698872E1,9.833656549E-1
5.643114063E0,-1.339412183E-1,9.958883286E0,1.026442170E0
5.648076563E0,-1.291528195E-1,9.992383003E0,1.043192029E0
5.653039063E0,-8.608591557E-2,9.980412483E0,1.012086511E0
5.658003125E0,-1.291528195E-1,9.987594604E0,9.714042544E-1
5.662965625E0,-1.028357521E-1,9.982805252E0,9.833656549E-1
5.667929688E0,-1.124029830E-1,9.978017807E0,9.618370533E-1
5.672892188E0,-1.052203774E-1,1.001151752E1,1.024047971E0
5.677856250E0,-7.890331000E-2,1.000673866E1,1.016865373E0
5.682818750E0,-1.190397050E-2,1.000434399E1,9.355103970E-1
5.687781250E0,-1.028357521E-1,1.002348804E1,9.187605381E-1
5.692745313E0,-7.172070444E-2,9.961267471E0,8.948376179E-1
5.697707813E0,-7.650911063E-2,1.002348804E1,8.206557035E-1
5.702671875E0,-8.847054094E-2,9.997160912E0,7.871560454E-1
5.707634375E0,-9.804734588E-2,9.949306488E0,7.560505867E-1
5.712596875E0,-3.344221041E-2,9.932557106E0,7.704062462E-1
5.717560938E0,-1.124029830E-1,9.918201447E0,7.728003860E-1
5.722523438E0,-6.215347722E-2,9.966055870E0,7.991175056E-1
5.727487500E0,-6.215347722E-2,9.942132950E0,8.421939611E-1
5.732450000E0,-8.847054094E-2,9.906239510E0,7.584447861E-1
5.737414063E0,-9.804734588E-2,9.944517136E0,7.225509286E-1
5.742376563E0,-4.300943762E-2,9.884700775E0,7.034068704E-1
5.747339063E0,-7.172070444E-2,9.872738838E0,7.105894685E-1
5.752303125E0,-1.052203774E-1,9.863162994E0,7.105894685E-1
5.757265625E0,-3.344221041E-2,9.896661758E0,7.775887847E-1
5.762229688E0,-1.147971824E-1,9.906239510E0,8.469727635E-1
5.767192188E0,-5.736507475E-2,9.922988892E0,8.110885024E-1
5.772156250E0,-1.267586201E-1,9.846412659E0,7.393007874E-1
5.777118750E0,-1.076145768E-1,9.834450722E0,7.249451280E-1
5.782081250E0,-7.650911063E-2,9.860768318E0,6.531573534E-1
5.787045313E0,-1.004415527E-1,9.894268990E0,5.981194377E-1
5.792007813E0,-8.608591557E-2,9.860768318E0,5.478699207E-1
5.796971875E0,-4.300943762E-2,9.879913330E0,5.909464359E-1
5.801934375E0,2.638410218E-2,9.844018936E0,5.478699207E-1
5.806898438E0,1.101237014E-1,9.808135033E0,6.100904346E-1
5.811860938E0,1.292581707E-1,9.753096581E0,5.861580372E-1
5.816823438E0,1.172967330E-1,9.743529320E0,6.100904346E-1
5.821787500E0,9.098923951E-2,9.786596298E0,6.029078960E-1
5.826750000E0,9.815269709E-2,9.750701904E0,6.603399515E-1
5.831714063E0,1.172967330E-1,9.731558800E0,6.938396692E-1
5.836676563E0,9.576806426E-2,9.755491257E0,6.866570711E-1
5.841639063E0,8.141243458E-2,9.750701904E0,6.531573534E-1
5.846603125E0,1.077295020E-1,9.688490868E0,5.933406353E-1
5.851565625E0,-9.509769268E-3,9.741134644E0,5.765908360E-1
5.856529688E0,-2.386540174E-2,9.753096581E0,4.928416312E-1
5.861492188E0,-3.822103515E-2,9.750701904E0,5.048030615E-1
5.866456250E0,2.398990095E-2,9.750701904E0,4.856590331E-1
5.871418750E0,8.141243458E-2,9.748308182E0,5.359085202E-1
5.876381250E0,2.877830528E-2,9.724386215E0,5.909464359E-1
5.881345313E0,3.116292879E-2,9.743529320E0,6.435901523E-1
5.886307813E0,4.791276529E-2,9.750701904E0,6.388017535E-1
5.891271875E0,-4.721365869E-3,9.760279655E0,7.081953287E-1
5.896234375E0,-4.721365869E-3,9.784202576E0,6.962338090E-1
5.901198438E0,-2.625960298E-2,9.710029602E0,7.201567292E-1
5.906160938E0,1.920149848E-2,9.815307617E0,5.813696384E-1
5.911123438E0,-2.625960298E-2,9.745914459E0,6.651188135E-1
5.916087500E0,4.845864139E-3,9.779414177E0,6.124846935E-1
5.921050000E0,2.159569971E-2,9.793779373E0,5.574467778E-1
5.926014063E0,4.073973373E-2,9.731558800E0,5.000146627E-1
5.930976563E0,-2.336740959E-3,9.781807899E0,5.095914602E-1
5.935940625E0,3.355713189E-2,9.753096581E0,5.430911183E-1
5.940903125E0,-2.625960298E-2,9.800951958E0,6.124846935E-1
5.945865625E0,5.746084207E-5,9.772240639E0,6.627342105E-1
5.950829688E0,1.920149848E-2,9.817702293E0,6.459843516E-1
5.955792188E0,1.202846877E-2,9.848807335E0,7.321181893E-1
5.960756250E0,1.202846877E-2,9.748308182E0,7.201567292E-1
5.965718750E0,5.746084207E-5,9.841633797E0,6.411958933E-1
5.970682813E0,1.920149848E-2,9.820096016E0,6.890512705E-1
5.975645313E0,3.834553435E-2,9.812912941E0,8.086943030E-1
5.980607813E0,9.098923951E-2,9.858384132E0,8.709052205E-1
5.985571875E0,8.859504014E-2,9.949306488E0,8.110885024E-1
5.990534375E0,1.196909323E-1,9.863162994E0,8.469727635E-1
5.995498438E0,1.077295020E-1,9.889489174E0,8.493670225E-1
6.000460938E0,7.663360238E-2,9.954094887E0,8.589437604E-1
6.005425000E0,5.748957023E-2,9.946911812E0,8.278383017E-1
6.010387500E0,4.791276529E-2,9.973237991E0,7.153682709E-1
6.015350000E0,8.620083332E-2,9.989988327E0,7.081953287E-1
6.020314063E0,3.834553435E-2,1.002348804E1,7.345123291E-1
6.025276563E0,3.116292879E-2,1.001630592E1,7.393007874E-1
6.030240625E0,-1.908657700E-2,9.997160912E0,7.225509286E-1
6.035203125E0,2.638410218E-2,9.958883286E0,7.823676467E-1
6.040167188E0,8.380663395E-2,9.961267471E0,6.938396692E-1
6.045129688E0,6.466259807E-2,9.949306488E0,6.316191554E-1
6.050092188E0,7.902780920E-2,9.951700211E0,6.723014116E-1
6.055056250E0,5.509537086E-2,1.002588272E1,6.435901523E-1
6.060018750E0,1.172967330E-1,9.942132950E0,5.765908360E-1
6.064982813E0,1.340465695E-1,9.939739227E0,6.053020358E-1
6.069945313E0,1.364407688E-1,9.973237991E0,6.053020358E-1
6.074909375E0,1.603731960E-1,9.915806770E0,6.148692966E-1
6.079871875E0,1.053352952E-1,9.920595169E0,6.005136967E-1
6.084834375E0,1.005468965E-1,9.915806770E0,6.244460940E-1
6.089798438E0,1.680729724E-2,9.961267471E0,6.196576953E-1
6.094760938E0,3.834553435E-2,9.968450546E0,6.555515528E-1
6.099725000E0,-5.736507475E-2,9.956489563E0,7.010126710E-1
6.104687500E0,-5.736507475E-2,9.913412094E0,7.393007874E-1
6.109650000E0,-3.583640978E-2,9.863162994E0,7.034068704E-1
6.114614063E0,-4.061523825E-2,9.954094887E0,7.058010697E-1
6.119576563E0,-1.190397050E-2,9.975632668E0,7.105894685E-1
6.124540625E0,-4.061523825E-2,9.901451111E0,7.081953287E-1
6.129503125E0,-2.386540174E-2,9.934949875E0,6.579458117E-1
6.134467188E0,-1.669237576E-2,9.918201447E0,7.105894685E-1
6.139429688E0,-4.721365869E-3,9.927767754E0,6.842628121E-1
6.144392188E0,-8.129751682E-2,9.958883286E0,7.512621880E-1
6.149356250E0,-5.736507475E-2,9.901451111E0,7.225509286E-1
6.154318750E0,-3.104800731E-2,9.925383568E0,8.039059043E-1
6.159282813E0,2.398990095E-2,9.930162430E0,7.105894685E-1
6.164245313E0,4.313393682E-2,9.901451111E0,7.943387032E-1
6.169207813E0,7.184520364E-2,9.903844833E0,7.943387032E-1
6.174171875E0,5.270116776E-2,9.911018372E0,7.345123291E-1
6.179134375E0,7.423940301E-2,9.980412483E0,8.110885024E-1
6.184098438E0,6.705679744E-2,9.958883286E0,7.632332444E-1
6.189060938E0,4.552813992E-2,9.899056435E0,8.063001037E-1
6.194025000E0,5.509537086E-2,9.903844833E0,7.608389854E-1
6.198987500E0,5.270116776E-2,9.944517136E0,6.962338090E-1
6.203951563E0,3.355713189E-2,9.975632668E0,6.962338090E-1
6.208914063E0,-4.061523825E-2,9.966055870E0,6.220518947E-1
6.213876563E0,1.920149848E-2,9.915806770E0,6.531573534E-1
6.218839063E0,-1.190397050E-2,9.922988892E0,6.220518947E-1
6.223803125E0,-1.076145768E-1,9.903844833E0,6.938396692E-1
6.228765625E0,-3.583640978E-2,9.942132950E0,7.010126710E-1
6.233729688E0,-7.650911063E-2,9.872738838E0,6.220518947E-1
6.238692188E0,-1.429817267E-2,9.901451111E0,6.388017535E-1
6.243656250E0,-5.975927413E-2,9.875133514E0,6.364075541E-1
6.248618750E0,-2.386540174E-2,9.882307053E0,6.340133548E-1
6.253582813E0,-1.004415527E-1,9.851201057E0,6.172634959E-1
6.258545313E0,-8.129751682E-2,9.884700775E0,6.029078960E-1
6.263507813E0,-5.497087166E-2,9.877518654E0,6.364075541E-1
6.268471875E0,-2.386540174E-2,9.882307053E0,6.005136967E-1
6.273434375E0,-5.497087166E-2,9.891883850E0,6.220518947E-1
6.278396875E0,-1.429817267E-2,9.853595734E0,6.770898700E-1
6.283360938E0,1.202846877E-2,9.846412659E0,7.488679886E-1
6.288325000E0,9.634267539E-3,9.877518654E0,7.249451280E-1
6.293287500E0,-4.540364072E-2,9.796163559E0,6.268403530E-1
6.298250000E0,-4.061523825E-2,9.745914459E0,5.215529203E-1
6.303214063E0,-6.454767287E-2,9.779414177E0,5.048030615E-1
6.308176563E0,-4.779784381E-2,9.755491257E0,5.263413191E-1
6.313140625E0,-5.497087166E-2,9.760279655E0,4.856590331E-1
6.318103125E0,-7.411490381E-2,9.719596863E0,4.641303718E-1
6.323067188E0,-8.129751682E-2,9.765057564E0,5.550525784E-1
6.328029688E0,-5.736507475E-2,9.781807899E0,6.076962948E-1
6.332992188E0,-2.386540174E-2,9.705241203E0,6.172634959E-1
6.337956250E0,-6.694187969E-2,9.755491257E0,5.550525784E-1
6.342918750E0,1.441309415E-2,9.719596863E0,4.928416312E-1
6.347881250E0,1.680729724E-2,9.712413788E0,4.545535445E-1
6.352845313E0,-5.258624628E-2,9.717203140E0,5.000146627E-1
6.357809375E0,-1.429817267E-2,9.738740921E0,6.220518947E-1
6.362771875E0,-7.650911063E-2,9.678915024E0,6.507631540E-1
6.367734375E0,-6.215347722E-2,9.733952522E0,6.555515528E-1
6.372698438E0,-9.565314651E-2,9.741134644E0,6.340133548E-1
6.377660938E0,-1.267586201E-1,9.729164124E0,7.034068704E-1
6.382623438E0,-1.243644133E-1,9.757884979E0,7.680120468E-1
6.387587500E0,-1.626524776E-1,9.757884979E0,7.536563873E-1
6.392550000E0,-1.171913818E-1,9.719596863E0,7.919444442E-1
6.397514063E0,-1.746139228E-1,9.738740921E0,7.488679886E-1
6.402476563E0,-1.435084492E-1,9.700452805E0,6.723014116E-1
6.407439063E0,-1.650466919E-1,9.688490868E0,6.029078960E-1
6.412403125E0,-1.506910622E-1,9.721991539E0,5.981194377E-1
6.417367188E0,-9.325893968E-2,9.731558800E0,6.005136967E-1
6.422329688E0,-1.100087836E-1,9.784202576E0,5.502641797E-1
6.427292188E0,-1.052203774E-1,9.760279655E0,6.148692966E-1
6.432254688E0,-2.386540174E-2,9.822490692E0,6.507631540E-1
6.437218750E0,-7.115567569E-3,9.808135033E0,6.411958933E-1
6.442181250E0,-5.258624628E-2,9.877518654E0,5.622351766E-1
6.447145313E0,-4.779784381E-2,9.786596298E0,7.081953287E-1
6.452107813E0,2.398990095E-2,9.824884415E0,6.914454103E-1
6.457071875E0,3.834553435E-2,9.896661758E0,6.459843516E-1
6.462034375E0,5.746084207E-5,9.875133514E0,6.555515528E-1
6.466996875E0,-8.129751682E-2,9.796163559E0,5.598409176E-1
6.471960938E0,-9.086474776E-2,9.848807335E0,5.670139790E-1
6.476923438E0,-5.497087166E-2,9.829663277E0,5.383027196E-1
6.481887500E0,-9.509769268E-3,9.841633797E0,5.550525784E-1
6.486850000E0,-5.736507475E-2,9.922988892E0,6.340133548E-1
6.491814063E0,-5.019204319E-2,9.863162994E0,6.340133548E-1
6.496776563E0,-9.325893968E-2,9.858384132E0,7.273392677E-1
6.501739063E0,-7.650911063E-2,9.887095451E0,6.866570711E-1
6.506703125E0,-3.104800731E-2,9.903844833E0,6.938396692E-1
6.511665625E0,-3.583640978E-2,9.865556717E0,7.464833260E-1
6.516629688E0,-5.019204319E-2,9.853595734E0,7.919444442E-1
6.521592188E0,-2.336740959E-3,9.879913330E0,7.656177878E-1
6.526556250E0,-9.509769268E-3,9.889489174E0,7.656177878E-1
6.531518750E0,-3.344221041E-2,9.982805252E0,7.967232466E-1
6.536481250E0,-5.019204319E-2,9.920595169E0,7.847618461E-1
6.541445313E0,-3.344221041E-2,9.915806770E0,7.895502448E-1
6.546407813E0,-5.019204319E-2,9.956489563E0,6.100904346E-1
6.551371875E0,-1.429817267E-2,9.980412483E0,7.153682709E-1
6.556334375E0,1.202846877E-2,9.958883286E0,7.728003860E-1
6.561298438E0,-2.625960298E-2,9.863162994E0,7.321181893E-1
6.566260938E0,2.877830528E-2,9.958883286E0,7.919444442E-1
6.571223438E0,-6.694187969E-2,9.913412094E0,8.015117049E-1
6.576187500E0,-2.386540174E-2,9.870346069E0,8.374055624E-1
6.581150000E0,-9.325893968E-2,9.884700775E0,7.416949272E-1
6.586114063E0,-5.258624628E-2,9.896661758E0,6.531573534E-1
6.591076563E0,-8.129751682E-2,9.906239510E0,6.435901523E-1
6.596039063E0,-8.369170874E-2,9.875133514E0,6.076962948E-1
6.601003125E0,-1.554698795E-1,9.841633797E0,6.746956110E-1
6.605965625E0,-1.171913818E-1,9.867951393E0,6.076962948E-1
6.610929688E0,-7.650911063E-2,9.834450722E0,6.124846935E-1
6.615892188E0,-5.736507475E-2,9.793779373E0,5.981194377E-1
6.620856250E0,-6.215347722E-2,9.855990410E0,5.933406353E-1
6.625818750E0,-1.908657700E-2,9.810519218E0,5.406969786E-1
6.630781250E0,-9.509769268E-3,9.767452240E0,5.215529203E-1
6.635745313E0,-3.344221041E-2,9.800951958E0,5.502641797E-1
6.640707813E0,-1.429817267E-2,9.786596298E0,6.172634959E-1
6.645671875E0,-4.721365869E-3,9.798557281E0,6.579458117E-1
6.650634375E0,-6.694187969E-2,9.848807335E0,5.550525784E-1
6.655598438E0,-9.804734588E-2,9.844018936E0,7.105894685E-1
6.660560938E0,-2.336740959E-3,9.937344551E0,7.847618461E-1
6.665523438E0,2.638410218E-2,9.863162994E0,8.134731650E-1
6.670487500E0,-1.429817267E-2,9.882307053E0,7.751946449E-1
6.675450000E0,7.663360238E-2,9.884700775E0,7.536563873E-1
6.680414063E0,1.441309415E-2,9.901451111E0,7.991175056E-1
6.685376563E0,3.834553435E-2,9.875133514E0,7.967232466E-1
6.690340625E0,-4.300943762E-2,9.911018372E0,8.015117049E-1
6.695303125E0,-9.086474776E-2,9.903844833E0,7.728003860E-1
6.700265625E0,-8.847054094E-2,9.877518654E0,7.225509286E-1
6.705229688E0,-7.411490381E-2,9.882307053E0,7.632332444E-1
6.710192188E0,-1.650466919E-1,9.863162994E0,7.369065285E-1
6.715156250E0,-5.497087166E-2,9.901451111E0,7.751946449E-1
6.720118750E0,-1.004415527E-1,9.906239510E0,7.129837275E-1
6.725082813E0,-6.694187969E-2,9.865556717E0,6.914454103E-1
6.730045313E0,-5.258624628E-2,9.836845398E0,6.938396692E-1
6.735007813E0,-5.258624628E-2,9.889489174E0,6.531573534E-1
6.739971875E0,-4.061523825E-2,9.872738838E0,5.718024373E-1
6.744934375E0,-4.721365869E-3,9.908634186E0,5.383027196E-1
6.749898438E0,-2.386540174E-2,9.870346069E0,5.143703222E-1
6.754860938E0,-5.258624628E-2,9.832057953E0,6.435901523E-1
6.759825000E0,2.877830528E-2,9.800951958E0,5.430911183E-1
6.764787500E0,7.240065839E-3,9.875133514E0,6.746956110E-1
6.769750000E0,5.746084207E-5,9.906239510E0,7.440891862E-1
6.774715625E0,5.746084207E-5,9.975632668E0,7.847618461E-1
6.779676563E0,2.451662440E-3,9.944517136E0,7.584447861E-1
6.784640625E0,-2.147120051E-2,9.934949875E0,8.350113630E-1
6.789603125E0,-5.975927413E-2,9.975632668E0,7.680120468E-1
6.794567188E0,-7.172070444E-2,1.000195026E1,8.134731650E-1
6.799529688E0,-1.387200505E-1,9.951700211E0,6.962338090E-1
6.804492188E0,-1.267586201E-1,9.884700775E0,7.584447861E-1
6.809456250E0,-4.779784381E-2,9.879913330E0,7.464833260E-1
6.814418750E0,-1.190397050E-2,9.913412094E0,7.632332444E-1
6.819382813E0,-7.411490381E-2,9.966055870E0,7.656177878E-1
6.824345313E0,-7.411490381E-2,9.958883286E0,8.780878186E-1
6.829309375E0,-8.369170874E-2,9.963662148E0,9.211547375E-1
6.834271875E0,-6.215347722E-2,1.000673866E1,8.565496206E-1
6.839234375E0,-8.129751682E-2,9.901451111E0,8.374055624E-1
6.844198438E0,1.202846877E-2,9.882307053E0,9.402987957E-1
6.849160938E0,2.398990095E-2,9.865556717E0,9.139720798E-1
6.854126563E0,4.845864139E-3,9.913412094E0,7.536563873E-1
6.859087500E0,-2.336740959E-3,9.889489174E0,8.374055624E-1
6.864051563E0,-4.540364072E-2,9.899056435E0,9.044048786E-1
6.869014063E0,-1.100087836E-1,9.872738838E0,8.709052205E-1
6.873978125E0,-1.052203774E-1,9.867951393E0,9.187605381E-1
6.878940625E0,-1.602582783E-1,9.963662148E0,8.206557035E-1
6.883903125E0,-1.817965209E-1,9.939739227E0,7.249451280E-1
6.888867188E0,-2.272576243E-1,9.891883850E0,7.967232466E-1
6.893829688E0,-1.052203774E-1,9.922988892E0,7.799734473E-1
6.898793750E0,-9.086474776E-2,9.915806770E0,7.464833260E-1
6.903756250E0,-1.315470189E-1,9.922988892E0,7.991175056E-1
6.908718750E0,-1.315470189E-1,9.927767754E0,7.680120468E-1
6.913682813E0,-9.565314651E-2,9.973237991E0,8.158673048E-1
6.918645313E0,-5.497087166E-2,9.925383568E0,7.369065285E-1
6.923609375E0,3.116292879E-2,9.973237991E0,7.991175056E-1
6.928571875E0,4.073973373E-2,9.908634186E0,7.847618461E-1
6.933535938E0,2.159569971E-2,9.946911812E0,7.249451280E-1
6.938498438E0,-4.540364072E-2,9.911018372E0,7.177625299E-1
6.943460938E0,-5.019204319E-2,9.884700775E0,8.063001037E-1
6.948425000E0,5.746084207E-5,9.951700211E0,8.015117049E-1
6.953387500E0,-3.583640978E-2,9.980412483E0,7.991175056E-1
6.958351563E0,-4.540364072E-2,9.997160912E0,8.852608800E-1
6.963314063E0,9.634267539E-3,1.001630592E1,9.235489368E-1
6.968276563E0,5.509537086E-2,1.002348804E1,9.211547375E-1
6.973240625E0,4.073973373E-2,9.946911812E0,9.379045963E-1
6.978203125E0,5.509537086E-2,1.003066158E1,9.020106792E-1
6.983167188E0,7.240065839E-3,9.968450546E0,8.828666210E-1
6.988129688E0,-9.509769268E-3,1.001151752E1,8.541554213E-1
6.993092188E0,-1.100087836E-1,1.006894875E1,8.374055624E-1
6.998056250E0,-1.219702139E-1,9.975632668E0,8.732994199E-1
7.003018750E0,-1.195855886E-1,1.006655502E1,8.302229643E-1
7.007982813E0,-9.325893968E-2,1.007134342E1,8.589437604E-1
7.012945313E0,-1.076145768E-1,1.004023838E1,8.326171637E-1
7.017909375E0,-4.300943762E-2,9.989988327E0,8.852608800E-1
7.022871875E0,-2.336740959E-3,9.992383003E0,9.785868526E-1
7.027834375E0,3.595133126E-2,9.982805252E0,9.259431362E-1
7.032798438E0,1.680729724E-2,9.934949875E0,9.355103970E-1
7.037760938E0,-5.975927413E-2,1.001870060E1,8.804724813E-1
7.042725000E0,-7.172070444E-2,1.000434399E1,8.900492787E-1
7.047687500E0,-8.129751682E-2,9.973237991E0,8.565496206E-1
7.052651563E0,-8.847054094E-2,1.002588272E1,8.876550794E-1
7.057614063E0,-9.804734588E-2,9.889489174E0,8.421939611E-1
7.062576563E0,-1.004415527E-1,9.944517136E0,8.230499029E-1
7.067540625E0,-1.363354176E-1,9.949306488E0,8.254441619E-1
7.072503125E0,-1.363354176E-1,9.922988892E0,8.541554213E-1
7.077467188E0,-1.722197086E-1,9.812912941E0,8.182615638E-1
7.082429688E0,-1.052203774E-1,9.848807335E0,7.656177878E-1
7.087393750E0,-8.369170874E-2,9.812912941E0,7.440891862E-1
7.092356250E0,-8.847054094E-2,9.757884979E0,7.345123291E-1
7.097320313E0,-7.172070444E-2,9.844018936E0,7.105894685E-1
7.102282813E0,-1.171913818E-1,9.793779373E0,7.823676467E-1
7.107245313E0,-1.387200505E-1,9.791384697E0,7.919444442E-1
7.112209375E0,-1.243644133E-1,9.741134644E0,8.326171637E-1
7.117171875E0,-1.291528195E-1,9.808135033E0,9.115875363E-1
7.122135938E0,-1.028357521E-1,9.731558800E0,8.374055624E-1
7.127098438E0,-1.339412183E-1,9.748308182E0,8.661168218E-1
7.132060938E0,-6.694187969E-2,9.755491257E0,8.709052205E-1
7.137025000E0,-1.698351055E-1,9.721991539E0,7.632332444E-1
7.141987500E0,-1.004415527E-1,9.729164124E0,7.393007874E-1
7.146951563E0,-1.937579513E-1,9.724386215E0,7.273392677E-1
7.151914063E0,-2.248634249E-1,9.733952522E0,7.129837275E-1
7.156878125E0,-1.841907203E-1,9.638241768E0,7.010126710E-1
7.161840625E0,-1.770081222E-1,9.712413788E0,7.943387032E-1
7.166804688E0,-2.368248552E-1,9.757884979E0,7.775887847E-1
7.171767188E0,-1.722197086E-1,9.762663841E0,7.704062462E-1
7.176729688E0,-1.889695525E-1,9.753096581E0,7.704062462E-1
7.181693750E0,-1.147971824E-1,9.707635880E0,6.986184716E-1
7.186656250E0,-1.171913818E-1,9.738740921E0,7.297335267E-1
7.191620313E0,-5.019204319E-2,9.743529320E0,7.871560454E-1
7.196582813E0,-5.497087166E-2,9.755491257E0,8.134731650E-1
7.201546875E0,-2.386540174E-2,9.755491257E0,8.278383017E-1
7.206509375E0,3.595133126E-2,9.769846916E0,8.996165395E-1
7.211471875E0,4.073973373E-2,9.769846916E0,8.876550794E-1
7.216435938E0,-1.908657700E-2,9.788990021E0,9.474717975E-1
7.221398438E0,-5.975927413E-2,9.848807335E0,9.020106792E-1
7.226362500E0,-8.369170874E-2,9.865556717E0,9.666158557E-1
7.231325000E0,-7.890331000E-2,9.901451111E0,9.355103970E-1
7.236287500E0,-5.019204319E-2,9.884700775E0,8.469727635E-1
7.241251563E0,-7.890331000E-2,9.899056435E0,8.086943030E-1
7.246214063E0,-7.650911063E-2,9.858384132E0,6.364075541E-1
7.251178125E0,-8.608591557E-2,9.846412659E0,6.340133548E-1
7.256140625E0,-5.019204319E-2,9.836845398E0,6.005136967E-1
7.261103125E0,-2.386540174E-2,9.798557281E0,6.124846935E-1
7.266067188E0,-5.258624628E-2,9.832057953E0,5.861580372E-1
7.271029688E0,-1.908657700E-2,9.762663841E0,6.076962948E-1
7.275993750E0,-8.369170874E-2,9.791384697E0,6.459843516E-1
7.280956250E0,-1.387200505E-1,9.803345680E0,6.268403530E-1
7.285920313E0,-1.746139228E-1,9.777029037E0,6.890512705E-1
7.290882813E0,-1.985463500E-1,9.796163559E0,5.981194377E-1
7.295845313E0,-1.865849346E-1,9.796163559E0,7.919444442E-1
7.300809375E0,-2.320460379E-1,9.774634361E0,6.483689547E-1
7.305771875E0,-1.770081222E-1,9.832057953E0,7.608389854E-1
7.310735938E0,-1.602582783E-1,9.812912941E0,7.632332444E-1
7.315698438E0,-1.411142498E-1,9.848807335E0,8.732994199E-1
7.320662500E0,-1.650466919E-1,9.860768318E0,8.613380194E-1
7.325625000E0,-1.315470189E-1,9.839240074E0,8.326171637E-1
7.330587500E0,-5.975927413E-2,9.884700775E0,7.943387032E-1
7.335551563E0,-5.497087166E-2,9.911018372E0,7.847618461E-1
7.340514063E0,-5.497087166E-2,9.899056435E0,7.584447861E-1
7.345478125E0,-5.019204319E-2,9.994767189E0,7.967232466E-1
7.350440625E0,-1.052203774E-1,1.001391125E1,7.393007874E-1
7.355404688E0,-1.052203774E-1,1.000434399E1,7.728003860E-1
7.360367188E0,-1.435084492E-1,9.932557106E0,8.756936789E-1
7.365329688E0,-1.913637519E-1,9.913412094E0,8.110885024E-1
7.370293750E0,-1.506910622E-1,9.966055870E0,8.469727635E-1
7.375256250E0,-1.411142498E-1,9.934949875E0,8.709052205E-1
7.380220313E0,-7.650911063E-2,1.002348804E1,8.469727635E-1
7.385182813E0,-1.908657700E-2,9.899056435E0,8.900492787E-1
7.390146875E0,-2.386540174E-2,9.803345680E0,9.211547375E-1
7.395109375E0,1.920149848E-2,9.875133514E0,9.546543956E-1
7.400073438E0,2.451662440E-3,9.875133514E0,9.546543956E-1
7.405035938E0,-4.721365869E-3,9.891883850E0,9.211547375E-1
7.409998438E0,-1.190397050E-2,9.865556717E0,9.474717975E-1
7.414962500E0,-5.497087166E-2,9.822490692E0,9.594427943E-1
7.419925000E0,-3.822103515E-2,9.834450722E0,8.445882201E-1
7.424887500E0,-6.933607906E-2,9.812912941E0,9.379045963E-1
7.429851563E0,-4.540364072E-2,9.836845398E0,9.067991376E-1
7.434814063E0,1.202846877E-2,9.791384697E0,8.469727635E-1
7.439778125E0,-2.865380608E-2,9.815307617E0,9.259431362E-1
7.444740625E0,-7.890331000E-2,9.841633797E0,9.020106792E-1
7.449704688E0,-3.104800731E-2,9.851201057E0,9.426929951E-1
7.454667188E0,-3.583640978E-2,9.896661758E0,8.374055624E-1
7.459631250E0,3.834553435E-2,9.891883850E0,7.512621880E-1
7.464593750E0,-2.865380608E-2,9.911018372E0,8.134731650E-1
7.469556250E0,1.920149848E-2,9.882307053E0,8.469727635E-1
7.474520313E0,4.791276529E-2,9.851201057E0,7.847618461E-1
7.479482813E0,7.663360238E-2,9.867951393E0,7.871560454E-1
7.484446875E0,7.423940301E-2,9.810519218E0,7.464833260E-1
7.489409375E0,-7.115567569E-3,9.855990410E0,6.746956110E-1
7.494371875E0,3.355713189E-2,9.836845398E0,7.201567292E-1
7.499335938E0,2.159569971E-2,9.858384132E0,6.340133548E-1
7.504298438E0,-4.721365869E-3,9.803345680E0,6.172634959E-1
7.509260938E0,-2.625960298E-2,9.815307617E0,6.842628121E-1
7.514225000E0,-2.336740959E-3,9.899056435E0,7.034068704E-1
7.519189063E0,4.845864139E-3,9.846412659E0,7.512621880E-1
7.524151563E0,-3.822103515E-2,9.870346069E0,8.493670225E-1
7.529114063E0,-1.267586201E-1,9.870346069E0,8.326171637E-1
7.534078125E0,-1.124029830E-1,9.918201447E0,8.326171637E-1
7.539040625E0,-1.195855886E-1,9.906239510E0,8.326171637E-1
7.544004688E0,-9.509769268E-3,9.968450546E0,7.919444442E-1
7.548967188E0,-5.019204319E-2,9.913412094E0,7.680120468E-1
7.553931250E0,-4.721365869E-3,9.903844833E0,8.565496206E-1
7.558893750E0,-2.865380608E-2,9.930162430E0,8.589437604E-1
7.563856250E0,2.877830528E-2,9.932557106E0,7.728003860E-1
7.568820313E0,7.184520364E-2,9.934949875E0,8.924434781E-1
7.573782813E0,2.877830528E-2,1.002348804E1,8.230499029E-1
7.578746875E0,1.920149848E-2,9.946911812E0,8.445882201E-1
7.583709375E0,4.845864139E-3,9.978017807E0,8.637226820E-1
7.588671875E0,-4.061523825E-2,9.922988892E0,8.876550794E-1
7.593635938E0,-9.804734588E-2,9.920595169E0,7.584447861E-1
7.598598438E0,-4.061523825E-2,9.906239510E0,7.560505867E-1
7.603562500E0,-5.975927413E-2,9.903844833E0,8.326171637E-1
7.608526563E0,-8.608591557E-2,9.915806770E0,8.732994199E-1
7.613489063E0,-9.804734588E-2,9.939739227E0,8.709052205E-1
7.618451563E0,-1.147971824E-1,9.925383568E0,8.613380194E-1
7.623414063E0,-3.822103515E-2,9.901451111E0,8.732994199E-1
7.628378125E0,-2.625960298E-2,9.896661758E0,9.355103970E-1
7.633340625E0,1.680729724E-2,9.927767754E0,9.450871348E-1
7.638304688E0,-1.429817267E-2,9.920595169E0,9.044048786E-1
7.643267188E0,-3.583640978E-2,9.846412659E0,8.876550794E-1
7.648231250E0,3.116292879E-2,9.872738838E0,8.804724813E-1
7.653192188E0,-1.004415527E-1,9.841633797E0,8.804724813E-1
7.658156250E0,-8.608591557E-2,9.872738838E0,8.517611623E-1
7.663120313E0,-1.506910622E-1,9.932557106E0,7.728003860E-1
7.668082813E0,-1.363354176E-1,9.899056435E0,8.134731650E-1
7.673045313E0,-1.506910622E-1,9.930162430E0,8.206557035E-1
7.678009375E0,-9.086474776E-2,9.877518654E0,8.469727635E-1
7.682971875E0,-8.129751682E-2,9.844018936E0,9.115875363E-1
7.687935938E0,9.634267539E-3,9.891883850E0,8.517611623E-1
7.692898438E0,4.845864139E-3,9.872738838E0,8.421939611E-1
7.697862500E0,-5.258624628E-2,9.889489174E0,8.541554213E-1
7.702825000E0,-1.190397050E-2,9.863162994E0,8.302229643E-1
7.707789063E0,1.441309415E-2,9.906239510E0,7.464833260E-1
7.712750000E0,1.202846877E-2,9.913412094E0,7.345123291E-1
7.717714063E0,5.746084207E-5,9.925383568E0,6.938396692E-1
7.722678125E0,1.680729724E-2,9.884700775E0,6.914454103E-1
7.727640625E0,2.451662440E-3,9.927767754E0,7.728003860E-1
7.732603125E0,4.073973373E-2,9.875133514E0,7.680120468E-1
7.737567188E0,1.680729724E-2,9.844018936E0,8.589437604E-1
7.742529688E0,3.355713189E-2,9.875133514E0,8.230499029E-1
7.747493750E0,5.270116776E-2,9.884700775E0,7.775887847E-1
7.752457813E0,5.270116776E-2,9.932557106E0,9.283373356E-1
7.757420313E0,-1.190397050E-2,9.812912941E0,8.421939611E-1
7.762382813E0,2.451662440E-3,9.882307053E0,8.828666210E-1
7.767345313E0,4.791276529E-2,9.865556717E0,7.871560454E-1
7.772309375E0,2.159569971E-2,9.934949875E0,8.637226820E-1
7.777271875E0,-4.300943762E-2,9.915806770E0,7.799734473E-1
7.782235938E0,-1.315470189E-1,9.925383568E0,7.823676467E-1
7.787198438E0,-5.975927413E-2,9.920595169E0,7.895502448E-1
7.792160938E0,-2.336740959E-3,9.894268990E0,7.201567292E-1
7.797125000E0,1.680729724E-2,9.887095451E0,8.541554213E-1
7.802087500E0,2.398990095E-2,9.915806770E0,8.637226820E-1
7.807051563E0,7.240065839E-3,9.879913330E0,8.565496206E-1
7.812015625E0,3.355713189E-2,9.844018936E0,8.374055624E-1
7.816978125E0,-1.908657700E-2,9.846412659E0,7.919444442E-1
7.821940625E0,-3.822103515E-2,9.834450722E0,7.536563873E-1
7.826903125E0,-6.454767287E-2,9.841633797E0,6.220518947E-1
7.831868750E0,-1.674408913E-1,9.844018936E0,6.651188135E-1
7.836829688E0,-2.105077952E-1,9.815307617E0,6.794840097E-1
7.841793750E0,-1.746139228E-1,9.815307617E0,6.986184716E-1
7.846757813E0,-1.841907203E-1,9.839240074E0,8.134731650E-1
7.851718750E0,-1.770081222E-1,9.841633797E0,8.421939611E-1
7.856684375E0,-6.933607906E-2,9.844018936E0,8.637226820E-1
7.861645313E0,-1.554698795E-1,9.841633797E0,8.780878186E-1
7.866610938E0,-1.219702139E-1,9.877518654E0,8.613380194E-1
7.871573438E0,-9.086474776E-2,9.788990021E0,8.302229643E-1
7.876535938E0,-1.267586201E-1,9.796163559E0,8.110885024E-1
7.881498438E0,-8.847054094E-2,9.872738838E0,7.273392677E-1
7.886460938E0,-8.369170874E-2,9.944517136E0,7.847618461E-1
7.891425000E0,-7.650911063E-2,9.899056435E0,8.015117049E-1
7.896387500E0,-1.411142498E-1,9.872738838E0,9.115875363E-1
7.901351563E0,-9.804734588E-2,9.918201447E0,8.326171637E-1
7.906314063E0,-8.847054094E-2,9.968450546E0,7.871560454E-1
7.911278125E0,-1.028357521E-1,9.882307053E0,8.972222805E-1
7.916242188E0,-5.736507475E-2,9.949306488E0,8.541554213E-1
7.921204688E0,-6.215347722E-2,9.891883850E0,8.086943030E-1
7.926168750E0,-6.694187969E-2,9.956489563E0,8.397997618E-1
7.931131250E0,-2.147120051E-2,9.863162994E0,8.517611623E-1
7.936093750E0,1.202846877E-2,9.915806770E0,7.775887847E-1
7.941056250E0,-4.779784381E-2,9.915806770E0,8.350113630E-1
7.946020313E0,-3.583640978E-2,9.922988892E0,8.613380194E-1
7.950982813E0,-1.004415527E-1,9.918201447E0,8.804724813E-1
7.955945313E0,-1.650466919E-1,9.911018372E0,9.091932774E-1
7.960909375E0,-2.386540174E-2,9.903844833E0,9.091932774E-1
7.965871875E0,7.240065839E-3,9.882307053E0,8.828666210E-1
7.970835938E0,5.746084207E-5,9.891883850E0,8.852608800E-1
7.975798438E0,2.638410218E-2,9.930162430E0,8.804724813E-1
7.980762500E0,3.355713189E-2,9.848807335E0,8.756936789E-1
7.985725000E0,2.398990095E-2,9.870346069E0,9.187605381E-1
7.990687500E0,5.270116776E-2,9.939739227E0,8.565496206E-1
7.995651563E0,-4.721365869E-3,9.985199928E0,7.034068704E-1
8.000614063E0,-1.190397050E-2,9.915806770E0,6.076962948E-1
8.005578125E0,-3.583640978E-2,9.875133514E0,8.541554213E-1
8.010540625E0,-1.482968628E-1,9.932557106E0,9.474717975E-1
8.015504688E0,1.202846877E-2,9.949306488E0,9.331161380E-1
8.020467188E0,1.680729724E-2,9.896661758E0,8.613380194E-1
8.025429688E0,6.945100427E-2,9.817702293E0,8.852608800E-1
8.030393750E0,1.202846877E-2,9.824884415E0,8.780878186E-1
8.035356250E0,-2.625960298E-2,9.875133514E0,8.565496206E-1
8.040320313E0,2.451662440E-3,9.820096016E0,8.541554213E-1
8.045282813E0,-5.736507475E-2,9.875133514E0,7.991175056E-1
8.050245313E0,-1.171913818E-1,9.803345680E0,7.823676467E-1
8.055209375E0,-1.339412183E-1,9.865556717E0,7.464833260E-1
8.060171875E0,-5.258624628E-2,9.846412659E0,7.560505867E-1
8.065135938E0,-4.061523825E-2,9.796163559E0,7.440891862E-1
8.070098438E0,-2.147120051E-2,9.863162994E0,6.507631540E-1
8.075062500E0,-1.076145768E-1,9.793779373E0,6.100904346E-1
8.080025000E0,-1.219702139E-1,9.829663277E0,6.627342105E-1
8.084989063E0,-6.933607906E-2,9.805740356E0,7.560505867E-1
8.089951563E0,-6.454767287E-2,9.822490692E0,7.871560454E-1
8.094914063E0,-9.325893968E-2,9.815307617E0,8.685110211E-1
8.099878125E0,-7.650911063E-2,9.848807335E0,8.613380194E-1
8.104840625E0,-8.608591557E-2,9.944517136E0,8.661168218E-1
8.109804688E0,-9.086474776E-2,9.932557106E0,7.823676467E-1
8.114767188E0,-1.052203774E-1,9.822490692E0,8.421939611E-1
8.119729688E0,-2.386540174E-2,9.879913330E0,8.302229643E-1
8.124693750E0,-8.129751682E-2,9.832057953E0,8.086943030E-1
8.129656250E0,-1.669237576E-2,9.887095451E0,8.350113630E-1
8.134620313E0,9.634267539E-3,9.855990410E0,8.996165395E-1
8.139582813E0,2.877830528E-2,9.824884415E0,9.426929951E-1
8.144546875E0,3.834553435E-2,9.920595169E0,9.139720798E-1
8.149509375E0,5.030696467E-2,9.942132950E0,8.804724813E-1
8.154471875E0,-4.721365869E-3,9.891883850E0,8.589437604E-1
8.159435938E0,5.270116776E-2,9.932557106E0,8.804724813E-1
8.164398438E0,1.441309415E-2,9.896661758E0,7.991175056E-1
8.169362500E0,1.441309415E-2,9.932557106E0,8.182615638E-1
8.174325000E0,-2.147120051E-2,9.903844833E0,8.996165395E-1
8.179289063E0,-9.509769268E-3,9.872738838E0,8.589437604E-1
8.184251563E0,4.073973373E-2,9.896661758E0,9.259431362E-1
8.189214063E0,9.634267539E-3,9.851201057E0,9.474717975E-1
8.194178125E0,5.746084207E-5,9.865556717E0,8.541554213E-1
8.199140625E0,-9.509769268E-3,9.822490692E0,8.948376179E-1
8.204104688E0,-7.172070444E-2,9.925383568E0,8.230499029E-1
8.209067188E0,-6.215347722E-2,9.882307053E0,8.206557035E-1
8.214031250E0,-5.736507475E-2,9.812912941E0,8.421939611E-1
8.218993750E0,-1.908657700E-2,9.817702293E0,7.823676467E-1
8.223956250E0,-1.429817267E-2,9.839240074E0,8.685110211E-1
8.228920313E0,-3.822103515E-2,9.853595734E0,7.919444442E-1
8.233882813E0,-5.019204319E-2,9.872738838E0,8.637226820E-1
8.238846875E0,-4.779784381E-2,9.836845398E0,8.086943030E-1
8.243809375E0,-9.509769268E-3,9.772240639E0,7.201567292E-1
8.248773438E0,-1.908657700E-2,9.788990021E0,7.225509286E-1
8.253735938E0,3.355713189E-2,9.803345680E0,7.153682709E-1
8.258698438E0,4.073973373E-2,9.815307617E0,7.704062462E-1
8.263662500E0,7.184520364E-2,9.829663277E0,7.967232466E-1
8.268625000E0,2.638410218E-2,9.810519218E0,7.775887847E-1
8.273589063E0,-5.497087166E-2,9.774634361E0,8.254441619E-1
8.278551563E0,6.705679744E-2,9.884700775E0,8.876550794E-1
8.283515625E0,2.451662440E-3,9.848807335E0,7.416949272E-1
8.288478125E0,4.313393682E-2,9.791384697E0,7.895502448E-1
8.293440625E0,-7.890331000E-2,9.800951958E0,5.933406353E-1
8.298404688E0,2.398990095E-2,9.822490692E0,7.058010697E-1
8.303367188E0,-2.147120051E-2,9.844018936E0,5.622351766E-1
8.308331250E0,2.451662440E-3,9.817702293E0,7.273392677E-1
8.313293750E0,-2.147120051E-2,9.827268600E0,5.789849758E-1
8.318256250E0,-7.115567569E-3,9.810519218E0,7.297335267E-1
8.323220313E0,3.834553435E-2,9.781807899E0,6.196576953E-1
8.328182813E0,4.845864139E-3,9.762663841E0,8.110885024E-1
8.333146875E0,4.073973373E-2,9.762663841E0,7.656177878E-1
8.338109375E0,-3.104800731E-2,9.786596298E0,7.297335267E-1
8.343073438E0,-2.147120051E-2,9.822490692E0,7.512621880E-1
8.348035938E0,-5.019204319E-2,9.817702293E0,8.206557035E-1
8.353000000E0,-1.004415527E-1,9.844018936E0,7.512621880E-1
8.357962500E0,-7.411490381E-2,9.844018936E0,7.393007874E-1
8.362925000E0,-6.694187969E-2,9.824884415E0,7.297335267E-1
8.367889063E0,-1.076145768E-1,9.839240074E0,7.943387032E-1
8.372851563E0,-6.694187969E-2,9.899056435E0,7.584447861E-1
8.377815625E0,-5.497087166E-2,9.884700775E0,7.967232466E-1
8.382778125E0,-1.028357521E-1,9.848807335E0,7.488679886E-1
8.387740625E0,-1.028357521E-1,9.939739227E0,7.608389854E-1
8.392704688E0,-1.315470189E-1,9.913412094E0,8.374055624E-1
8.397667188E0,-1.219702139E-1,9.939739227E0,8.517611623E-1
8.402631250E0,-6.215347722E-2,9.961267471E0,8.685110211E-1
8.407593750E0,-5.497087166E-2,9.987594604E0,8.876550794E-1
8.412556250E0,-4.300943762E-2,9.949306488E0,8.397997618E-1
8.417520313E0,-1.243644133E-1,9.961267471E0,8.804724813E-1
8.422482813E0,-7.172070444E-2,9.961267471E0,8.445882201E-1
8.427446875E0,-8.129751682E-2,9.954094887E0,8.374055624E-1
8.432409375E0,-1.429817267E-2,9.992383003E0,8.254441619E-1
8.437373438E0,1.441309415E-2,9.975632668E0,8.397997618E-1
8.442335938E0,3.116292879E-2,1.001151752E1,7.991175056E-1
8.447300000E0,-1.190397050E-2,9.999555588E0,8.685110211E-1
8.452262500E0,4.791276529E-2,9.951700211E0,9.139720798E-1
8.457225000E0,-9.509769268E-3,1.003784370E1,9.067991376E-1
8.462189063E0,9.634267539E-3,1.001151752E1,9.474717975E-1
8.467151563E0,7.184520364E-2,1.006894875E1,9.905482531E-1
8.472115625E0,4.552813992E-2,9.994767189E0,9.785868526E-1
8.477078125E0,9.576806426E-2,9.963662148E0,8.948376179E-1
8.482040625E0,5.748957023E-2,1.002588272E1,8.302229643E-1
8.487004688E0,7.423940301E-2,9.932557106E0,8.541554213E-1
8.491967188E0,-9.509769268E-3,9.982805252E0,8.517611623E-1
8.496931250E0,3.116292879E-2,1.007851696E1,8.254441619E-1
8.501893750E0,3.834553435E-2,9.954094887E0,8.565496206E-1
8.506857813E0,6.945100427E-2,9.932557106E0,8.804724813E-1
8.511820313E0,8.380663395E-2,9.911018372E0,8.589437604E-1
8.516784375E0,1.005468965E-1,9.863162994E0,8.972222805E-1
8.521746875E0,9.098923951E-2,9.867951393E0,7.847618461E-1
8.526709375E0,1.172967330E-1,9.848807335E0,6.555515528E-1
8.531673438E0,1.244793311E-1,9.853595734E0,7.751946449E-1
8.536635938E0,5.748957023E-2,9.896661758E0,6.914454103E-1
8.541600000E0,1.005468965E-1,9.827268600E0,7.297335267E-1
8.546562500E0,1.077295020E-1,9.820096016E0,6.818686724E-1
8.551525000E0,7.663360238E-2,9.808135033E0,7.177625299E-1
8.556489063E0,3.834553435E-2,9.808135033E0,6.914454103E-1
8.561451563E0,3.595133126E-2,9.767452240E0,6.890512705E-1
8.566415625E0,1.680729724E-2,9.796163559E0,7.823676467E-1
8.571378125E0,-4.540364072E-2,9.796163559E0,7.847618461E-1
8.576340625E0,-4.779784381E-2,9.788990021E0,8.134731650E-1
8.581304688E0,-9.565314651E-2,9.820096016E0,8.015117049E-1
8.586267188E0,-1.100087836E-1,9.777029037E0,7.369065285E-1
8.591231250E0,-1.076145768E-1,9.774634361E0,7.728003860E-1
8.596193750E0,-6.215347722E-2,9.741134644E0,7.297335267E-1
8.601157813E0,-1.411142498E-1,9.860768318E0,7.823676467E-1
8.606120313E0,-5.736507475E-2,9.750701904E0,7.632332444E-1
8.611084375E0,-1.669237576E-2,9.762663841E0,8.732994199E-1
8.616046875E0,1.202846877E-2,9.748308182E0,9.618370533E-1
8.621009375E0,-2.865380608E-2,9.748308182E0,9.426929951E-1
8.625973438E0,-8.608591557E-2,9.779414177E0,9.881540537E-1
8.630935938E0,-6.933607906E-2,9.731558800E0,8.924434781E-1
8.635900000E0,-1.171913818E-1,9.765057564E0,8.876550794E-1
8.640862500E0,-1.817965209E-1,9.777029037E0,8.397997618E-1
8.645826563E0,-1.794023216E-1,9.760279655E0,7.823676467E-1
8.650789063E0,-1.459026486E-1,9.721991539E0,7.799734473E-1
8.655753125E0,-3.104800731E-2,9.693280220E0,6.938396692E-1
8.660715625E0,4.073973373E-2,9.705241203E0,6.220518947E-1
8.665678125E0,8.859504014E-2,9.659780502E0,6.435901523E-1
8.670642188E0,7.902780920E-2,9.664558411E0,6.459843516E-1
8.675604688E0,8.141243458E-2,9.666953087E0,5.718024373E-1
8.680568750E0,-1.908657700E-2,9.710029602E0,6.124846935E-1
8.685531250E0,3.595133126E-2,9.753096581E0,7.464833260E-1
8.690495313E0,8.141243458E-2,9.762663841E0,6.675130129E-1
8.695457813E0,1.053352952E-1,9.702846527E0,6.411958933E-1
8.700420313E0,3.834553435E-2,9.767452240E0,6.244460940E-1
8.705384375E0,-2.336740959E-3,9.788990021E0,6.842628121E-1
8.710346875E0,4.845864139E-3,9.786596298E0,7.201567292E-1
8.715310938E0,2.451662440E-3,9.824884415E0,8.015117049E-1
8.720273438E0,1.441309415E-2,9.832057953E0,7.728003860E-1
8.725235938E0,-4.721365869E-3,9.872738838E0,8.972222805E-1
8.730200000E0,5.746084207E-5,9.911018372E0,8.517611623E-1
8.735162500E0,4.845864139E-3,9.896661758E0,8.182615638E-1
8.740125000E0,-1.908657700E-2,9.927767754E0,8.039059043E-1
8.745089063E0,-3.583640978E-2,9.911018372E0,8.374055624E-1
8.750051563E0,-5.019204319E-2,9.949306488E0,8.421939611E-1
8.755015625E0,-7.115567569E-3,9.946911812E0,8.924434781E-1
8.759978125E0,-6.454767287E-2,9.927767754E0,9.163663387E-1
8.764942188E0,-2.147120051E-2,9.994767189E0,8.326171637E-1
8.769904688E0,4.073973373E-2,1.002109337E1,8.613380194E-1
8.774867188E0,4.845864139E-3,9.966055870E0,8.182615638E-1
8.779831250E0,-5.258624628E-2,1.001630592E1,7.967232466E-1
8.784793750E0,-4.300943762E-2,1.002109337E1,7.632332444E-1
8.789757813E0,-5.736507475E-2,1.006176662E1,8.039059043E-1
8.794720313E0,-9.509769268E-3,1.004263210E1,8.086943030E-1
8.799682813E0,4.845864139E-3,1.005219936E1,8.900492787E-1
8.804646875E0,6.466259807E-2,1.007134342E1,9.259431362E-1
8.809610938E0,8.380663395E-2,1.003784370E1,8.996165395E-1
8.814573438E0,2.638410218E-2,1.008091068E1,8.876550794E-1
8.819535938E0,-3.344221041E-2,1.010962200E1,8.086943030E-1
8.824500000E0,-5.736507475E-2,1.010962200E1,8.565496206E-1
8.829462500E0,-5.497087166E-2,1.008809376E1,7.728003860E-1
8.834426563E0,-1.291528195E-1,1.006655502E1,8.230499029E-1
8.839389063E0,-9.509769268E-3,1.009766006E1,8.015117049E-1
8.844351563E0,3.116292879E-2,1.006176662E1,7.608389854E-1
8.849315625E0,-3.583640978E-2,1.007134342E1,7.751946449E-1
8.854278125E0,-2.147120051E-2,1.004023838E1,8.158673048E-1
8.859242188E0,-6.933607906E-2,1.006894875E1,8.374055624E-1
8.864204688E0,-6.454767287E-2,1.006655502E1,9.522601962E-1
8.869168750E0,-1.985463500E-1,9.963662148E0,9.355103970E-1
8.874131250E0,-1.411142498E-1,1.001151752E1,8.780878186E-1
8.879095313E0,-2.224692255E-1,9.963662148E0,9.570485950E-1
8.884057813E0,-1.626524776E-1,9.942132950E0,8.709052205E-1
8.889020313E0,-1.578640938E-1,9.913412094E0,8.661168218E-1
8.893984375E0,-1.961521655E-1,9.896661758E0,7.967232466E-1
8.898946875E0,-1.052203774E-1,9.879913330E0,7.345123291E-1
8.903910938E0,-1.578640938E-1,9.899056435E0,8.445882201E-1
8.908873438E0,-1.674408913E-1,9.822490692E0,7.584447861E-1
8.913835938E0,-1.076145768E-1,9.894268990E0,8.517611623E-1
8.918798438E0,-1.243644133E-1,9.844018936E0,8.254441619E-1
8.923762500E0,-7.172070444E-2,9.827268600E0,8.350113630E-1
8.928726563E0,-7.650911063E-2,9.808135033E0,7.153682709E-1
8.933689063E0,-6.694187969E-2,9.855990410E0,8.063001037E-1
8.938651563E0,-7.172070444E-2,9.860768318E0,7.225509286E-1
8.943615625E0,-7.890331000E-2,9.796163559E0,7.369065285E-1
8.948578125E0,7.240065839E-3,9.851201057E0,5.694081783E-1
8.953540625E0,1.680729724E-2,9.800951958E0,6.316191554E-1
8.958504688E0,6.466259807E-2,9.791384697E0,7.345123291E-1
8.963467188E0,4.845864139E-3,9.798557281E0,6.340133548E-1
8.968431250E0,1.149025261E-1,9.772240639E0,7.129837275E-1
8.973393750E0,6.227797270E-2,9.755491257E0,7.536563873E-1
8.978357813E0,6.705679744E-2,9.726778984E0,7.943387032E-1
8.983320313E0,1.029410958E-1,9.765057564E0,8.015117049E-1
8.988282813E0,6.705679744E-2,9.719596863E0,8.015117049E-1
8.993246875E0,2.877830528E-2,9.800951958E0,8.661168218E-1
8.998209375E0,-3.344221041E-2,9.781807899E0,8.685110211E-1
9.003171875E0,-5.736507475E-2,9.836845398E0,8.637226820E-1
9.008135938E0,-8.608591557E-2,9.800951958E0,8.350113630E-1
9.013100000E0,-6.215347722E-2,9.829663277E0,8.374055624E-1
9.018062500E0,-3.822103515E-2,9.777029037E0,8.421939611E-1
9.023025000E0,4.552813992E-2,9.762663841E0,8.421939611E-1
9.027989063E0,9.338344634E-2,9.796163559E0,8.158673048E-1
9.032951563E0,4.313393682E-2,9.748308182E0,8.661168218E-1
9.037915625E0,7.184520364E-2,9.810519218E0,8.397997618E-1
9.042878125E0,7.902780920E-2,9.808135033E0,8.589437604E-1
9.047840625E0,9.634267539E-3,9.834450722E0,7.632332444E-1
9.052804688E0,3.116292879E-2,9.777029037E0,7.201567292E-1
9.057767188E0,1.680729724E-2,9.779414177E0,6.794840097E-1
9.062731250E0,-2.625960298E-2,9.748308182E0,6.507631540E-1
9.067693750E0,-5.497087166E-2,9.781807899E0,6.507631540E-1
9.072656250E0,-1.052203774E-1,9.762663841E0,7.321181893E-1
9.077620313E0,-7.411490381E-2,9.762663841E0,6.794840097E-1
9.082582813E0,-1.028357521E-1,9.753096581E0,6.986184716E-1
9.087546875E0,-5.258624628E-2,9.793779373E0,7.943387032E-1
9.092509375E0,-2.865380608E-2,9.791384697E0,8.374055624E-1
9.097473438E0,-9.509769268E-3,9.748308182E0,8.039059043E-1
9.102435938E0,-8.129751682E-2,9.786596298E0,7.847618461E-1
9.107398438E0,-8.129751682E-2,9.812912941E0,8.661168218E-1
9.112362500E0,-7.172070444E-2,9.796163559E0,8.278383017E-1
9.117325000E0,-1.028357521E-1,9.767452240E0,7.943387032E-1
9.122289063E0,-1.076145768E-1,9.839240074E0,8.182615638E-1
9.127251563E0,-1.482968628E-1,9.798557281E0,7.847618461E-1
9.132215625E0,-1.267586201E-1,9.810519218E0,7.967232466E-1
9.137178125E0,-1.339412183E-1,9.920595169E0,7.560505867E-1
9.142142188E0,-1.219702139E-1,9.836845398E0,8.302229643E-1
9.147104688E0,-1.171913818E-1,9.930162430E0,8.972222805E-1
9.152067188E0,-1.124029830E-1,9.911018372E0,9.187605381E-1
9.157031250E0,-1.004415527E-1,9.865556717E0,9.666158557E-1
9.161993750E0,-5.258624628E-2,9.951700211E0,8.804724813E-1
9.166957813E0,-6.933607906E-2,9.867951393E0,8.206557035E-1
9.171920313E0,-7.890331000E-2,9.922988892E0,8.326171637E-1
9.176884375E0,-3.344221041E-2,9.846412659E0,8.039059043E-1
9.181846875E0,-1.028357521E-1,9.961267471E0,7.847618461E-1
9.186809375E0,-5.736507475E-2,9.934949875E0,8.254441619E-1
9.191773438E0,-2.147120051E-2,9.951700211E0,8.230499029E-1
9.196735938E0,2.638410218E-2,9.901451111E0,7.847618461E-1
9.201698438E0,-4.300943762E-2,9.882307053E0,8.206557035E-1
9.206662500E0,5.509537086E-2,9.894268990E0,7.967232466E-1
9.211625000E0,-4.779784381E-2,9.820096016E0,7.871560454E-1
9.216589063E0,-5.019204319E-2,9.829663277E0,7.416949272E-1
9.221551563E0,-1.669237576E-2,9.946911812E0,7.632332444E-1
9.226515625E0,-5.497087166E-2,9.887095451E0,7.871560454E-1
9.231478125E0,-5.019204319E-2,9.824884415E0,7.943387032E-1
9.236442188E0,-1.100087836E-1,9.930162430E0,7.847618461E-1
9.241404688E0,-1.171913818E-1,9.851201057E0,7.895502448E-1
9.246368750E0,-9.086474776E-2,9.865556717E0,8.086943030E-1
9.251331250E0,-8.369170874E-2,9.901451111E0,8.063001037E-1
9.256295313E0,-1.578640938E-1,9.901451111E0,8.182615638E-1
9.261257813E0,-1.530852467E-1,9.918201447E0,8.613380194E-1
9.266220313E0,-9.804734588E-2,9.927767754E0,9.163663387E-1
9.271182813E0,-1.076145768E-1,9.970844269E0,8.900492787E-1
9.276146875E0,-5.258624628E-2,9.997160912E0,8.685110211E-1
9.281109375E0,-1.052203774E-1,9.958883286E0,8.756936789E-1
9.286073438E0,-2.147120051E-2,9.992383003E0,9.498660564E-1
9.291035938E0,-4.779784381E-2,9.992383003E0,9.044048786E-1
9.296000000E0,-5.019204319E-2,9.994767189E0,9.283373356E-1
9.300962500E0,-8.608591557E-2,9.994767189E0,9.618370533E-1
9.305925000E0,-3.104800731E-2,1.000195026E1,9.594427943E-1
9.310890625E0,9.634267539E-3,1.004263210E1,9.020106792E-1
9.315851563E0,-1.429817267E-2,9.989988327E0,8.565496206E-1
9.320815625E0,-4.300943762E-2,9.999555588E0,8.565496206E-1
9.325778125E0,-7.115567569E-3,9.982805252E0,8.254441619E-1
9.330742188E0,-7.115567569E-3,1.002826691E1,8.517611623E-1
9.335704688E0,-8.369170874E-2,9.985199928E0,8.374055624E-1
9.340667188E0,-5.497087166E-2,9.999555588E0,8.254441619E-1
9.345631250E0,-4.540364072E-2,1.002826691E1,8.421939611E-1
9.350593750E0,-1.267586201E-1,9.942132950E0,6.794840097E-1
9.355557813E0,-1.506910622E-1,9.922988892E0,7.034068704E-1
9.360520313E0,-6.933607906E-2,9.949306488E0,6.172634959E-1
9.365484375E0,-6.933607906E-2,9.815307617E0,7.512621880E-1
9.370446875E0,-1.100087836E-1,9.913412094E0,7.393007874E-1
9.375409375E0,-1.028357521E-1,9.875133514E0,7.393007874E-1
9.380373438E0,-9.325893968E-2,9.918201447E0,8.326171637E-1
9.385335938E0,-1.482968628E-1,9.860768318E0,8.828666210E-1
9.390300000E0,-1.626524776E-1,9.808135033E0,8.517611623E-1
9.395262500E0,-2.057193965E-1,9.836845398E0,7.967232466E-1
9.400226563E0,-2.511900663E-1,9.834450722E0,7.632332444E-1
9.405189063E0,-2.870743573E-1,9.793779373E0,7.656177878E-1
9.410151563E0,-2.392190546E-1,9.800951958E0,7.536563873E-1
9.415115625E0,-2.129019946E-1,9.836845398E0,8.206557035E-1
9.420078125E0,-2.464016527E-1,9.865556717E0,8.541554213E-1
9.425042188E0,-2.081135809E-1,9.887095451E0,8.948376179E-1
9.430004688E0,-2.344402373E-1,9.858384132E0,9.139720798E-1
9.434968750E0,-2.129019946E-1,9.949306488E0,9.283373356E-1
9.439931250E0,-2.224692255E-1,9.810519218E0,9.737984538E-1
9.444893750E0,-1.698351055E-1,9.908634186E0,9.618370533E-1
9.449857813E0,-1.100087836E-1,9.927767754E0,8.685110211E-1
9.454820313E0,-8.847054094E-2,9.829663277E0,7.847618461E-1
9.459784375E0,-1.339412183E-1,9.848807335E0,7.704062462E-1
9.464746875E0,-9.086474776E-2,9.836845398E0,8.039059043E-1
9.469710938E0,-8.129751682E-2,9.855990410E0,7.775887847E-1
9.474673438E0,-6.694187969E-2,9.822490692E0,7.799734473E-1
9.479635938E0,-7.411490381E-2,9.822490692E0,7.871560454E-1
9.484600000E0,-2.147120051E-2,9.772240639E0,7.440891862E-1
9.489562500E0,-1.669237576E-2,9.769846916E0,7.895502448E-1
9.494526563E0,-1.190397050E-2,9.777029037E0,7.058010697E-1
9.499489063E0,-2.865380608E-2,9.683703423E0,6.340133548E-1
9.504451563E0,-1.429817267E-2,9.791384697E0,7.895502448E-1
9.509415625E0,-1.190397050E-2,9.710029602E0,7.249451280E-1
9.514378125E0,-4.721365869E-3,9.741134644E0,7.799734473E-1
9.519342188E0,-7.172070444E-2,9.743529320E0,7.871560454E-1
9.524304688E0,-1.028357521E-1,9.698058128E0,7.775887847E-1
9.529268750E0,-1.052203774E-1,9.805740356E0,8.134731650E-1
9.534231250E0,-4.061523825E-2,9.762663841E0,8.182615638E-1
9.539193750E0,-4.779784381E-2,9.779414177E0,8.158673048E-1
9.544157813E0,7.663360238E-2,9.755491257E0,8.565496206E-1
9.549120313E0,-3.822103515E-2,9.767452240E0,8.637226820E-1
9.554084375E0,-3.583640978E-2,9.774634361E0,8.374055624E-1
9.559046875E0,-3.583640978E-2,9.748308182E0,7.440891862E-1
9.564010938E0,-2.865380608E-2,9.810519218E0,7.704062462E-1
9.568973438E0,-8.608591557E-2,9.803345680E0,7.799734473E-1
9.573935938E0,-6.694187969E-2,9.798557281E0,7.991175056E-1
9.578900000E0,-1.004415527E-1,9.851201057E0,8.254441619E-1
9.583862500E0,-1.195855886E-1,9.815307617E0,7.656177878E-1
9.588826563E0,-1.669237576E-2,9.820096016E0,8.158673048E-1
9.593790625E0,-9.325893968E-2,9.812912941E0,7.919444442E-1
9.598753125E0,-2.865380608E-2,9.844018936E0,8.158673048E-1
9.603715625E0,-8.129751682E-2,9.834450722E0,7.751946449E-1
9.608678125E0,-1.124029830E-1,9.839240074E0,7.321181893E-1
9.613642188E0,-1.147971824E-1,9.877518654E0,6.651188135E-1
9.618625000E0,-4.540364072E-2,9.875133514E0,7.081953287E-1
9.623568750E0,-9.804734588E-2,9.870346069E0,7.321181893E-1
9.628531250E0,-9.086474776E-2,9.891883850E0,7.273392677E-1
9.633495313E0,-8.129751682E-2,9.906239510E0,7.775887847E-1
9.638457813E0,-8.129751682E-2,9.927767754E0,8.374055624E-1
9.643420313E0,-1.004415527E-1,9.920595169E0,8.948376179E-1
9.648384375E0,-1.124029830E-1,9.932557106E0,8.804724813E-1
9.653346875E0,-1.554698795E-1,9.992383003E0,7.895502448E-1
9.658310938E0,-1.004415527E-1,9.956489563E0,7.847618461E-1
9.663273438E0,-1.028357521E-1,9.975632668E0,7.440891862E-1
9.668235938E0,-6.933607906E-2,1.003305531E1,6.770898700E-1
9.673200000E0,-1.100087836E-1,1.002109337E1,7.201567292E-1
9.678162500E0,-4.540364072E-2,1.005698872E1,7.369065285E-1
9.683126563E0,-6.215347722E-2,1.002109337E1,7.273392677E-1
9.688089063E0,-7.172070444E-2,9.985199928E0,7.393007874E-1
9.693053125E0,-1.387200505E-1,9.973237991E0,8.254441619E-1
9.698015625E0,-7.411490381E-2,1.000195026E1,8.063001037E-1
9.702978125E0,-1.243644133E-1,9.994767189E0,7.847618461E-1
9.707942188E0,-9.325893968E-2,9.875133514E0,7.751946449E-1
9.712904688E0,-9.804734588E-2,9.884700775E0,7.440891862E-1
9.717868750E0,-5.258624628E-2,9.884700775E0,7.608389854E-1
9.722831250E0,-1.865849346E-1,9.872738838E0,8.182615638E-1
9.727795313E0,-1.698351055E-1,9.844018936E0,7.345123291E-1
9.732757813E0,-1.841907203E-1,9.839240074E0,7.775887847E-1
9.737720313E0,-2.081135809E-1,9.829663277E0,7.536563873E-1
9.742684375E0,-2.464016527E-1,9.784202576E0,8.421939611E-1
9.747646875E0,-2.081135809E-1,9.860768318E0,7.297335267E-1
9.752610938E0,-1.913637519E-1,9.781807899E0,7.058010697E-1
9.757573438E0,-1.506910622E-1,9.808135033E0,6.890512705E-1
9.762537500E0,-8.608591557E-2,9.882307053E0,6.268403530E-1
9.767500000E0,-4.779784381E-2,9.803345680E0,5.981194377E-1
9.772462500E0,-5.258624628E-2,9.784202576E0,7.058010697E-1
9.777426563E0,-3.104800731E-2,9.772240639E0,7.034068704E-1
9.782389063E0,-2.147120051E-2,9.846412659E0,7.488679886E-1
9.787353125E0,-3.583640978E-2,9.872738838E0,6.962338090E-1
9.792315625E0,-4.721365869E-3,9.867951393E0,7.919444442E-1
9.797278125E0,5.746084207E-5,9.896661758E0,7.177625299E-1
9.802242188E0,-5.975927413E-2,9.918201447E0,7.488679886E-1
9.807204688E0,-1.908657700E-2,9.930162430E0,7.225509286E-1
9.812168750E0,-4.061523825E-2,9.978017807E0,8.350113630E-1
9.817131250E0,2.451662440E-3,9.908634186E0,8.541554213E-1
9.822095313E0,-1.908657700E-2,9.913412094E0,7.775887847E-1
9.827057813E0,1.441309415E-2,9.920595169E0,8.086943030E-1
9.832020313E0,1.202846877E-2,9.956489563E0,8.661168218E-1
9.836984375E0,5.270116776E-2,9.944517136E0,8.326171637E-1
9.841946875E0,4.313393682E-2,9.932557106E0,8.804724813E-1
9.846910938E0,-6.694187969E-2,9.949306488E0,8.852608800E-1
9.851873438E0,-2.386540174E-2,9.966055870E0,8.685110211E-1
9.856837500E0,2.877830528E-2,9.939739227E0,8.517611623E-1
9.861800000E0,-8.608591557E-2,9.932557106E0,8.206557035E-1
9.866762500E0,-2.033347636E-1,9.925383568E0,8.063001037E-1
9.871726563E0,-1.482968628E-1,9.887095451E0,7.225509286E-1
9.876689063E0,-1.578640938E-1,9.875133514E0,7.440891862E-1
9.881653125E0,-1.722197086E-1,9.853595734E0,6.483689547E-1
9.886615625E0,-1.841907203E-1,9.848807335E0,6.053020358E-1
9.891579688E0,-1.794023216E-1,9.846412659E0,6.292344928E-1
9.896542188E0,-2.105077952E-1,9.832057953E0,6.340133548E-1
9.901504688E0,-2.464016527E-1,9.860768318E0,7.249451280E-1
9.906468750E0,-1.865849346E-1,9.834450722E0,6.914454103E-1
9.911431250E0,-1.722197086E-1,9.836845398E0,6.842628121E-1
9.916395313E0,-2.009405643E-1,9.848807335E0,7.010126710E-1
9.921357813E0,-2.081135809E-1,9.851201057E0,7.704062462E-1
9.926321875E0,-2.440074682E-1,9.846412659E0,7.847618461E-1
9.931284375E0,-2.392190546E-1,9.820096016E0,8.158673048E-1
9.936246875E0,-2.535746992E-1,9.851201057E0,8.254441619E-1
9.941210938E0,-2.296518236E-1,9.901451111E0,7.512621880E-1
9.946173438E0,-2.152961940E-1,9.882307053E0,7.728003860E-1
9.951137500E0,-2.224692255E-1,9.872738838E0,7.393007874E-1
9.956100000E0,-1.459026486E-1,9.980412483E0,7.799734473E-1
9.961064063E0,-1.435084492E-1,9.913412094E0,8.397997618E-1
9.966026563E0,-1.459026486E-1,9.958883286E0,8.063001037E-1
9.970989063E0,-1.339412183E-1,1.002109337E1,8.278383017E-1
9.975953125E0,-1.004415527E-1,9.954094887E0,8.828666210E-1
9.980915625E0,-6.454767287E-2,9.973237991E0,9.115875363E-1
9.985879688E0,-5.497087166E-2,9.992383003E0,9.091932774E-1
9.990842188E0,-1.669237576E-2,1.001630592E1,8.254441619E-1
9.995806250E0,-3.583640978E-2,9.958883286E0,8.756936789E-1
1.000076875E1,-9.509769268E-3,1.000434399E1,8.541554213E-1
1.000573125E1,-7.890331000E-2,9.946911812E0,8.876550794E-1
1.001069531E1,-3.822103515E-2,9.911018372E0,8.732994199E-1
1.001565781E1,-1.669237576E-2,9.889489174E0,9.618370533E-1
1.002062188E1,-2.865380608E-2,9.879913330E0,8.780878186E-1
1.002558438E1,3.355713189E-2,9.908634186E0,9.020106792E-1
1.003054688E1,-1.669237576E-2,9.846412659E0,8.756936789E-1
1.003551094E1,-2.386540174E-2,9.860768318E0,8.541554213E-1
1.004047344E1,-2.865380608E-2,9.829663277E0,8.445882201E-1
1.004543750E1,-9.565314651E-2,9.820096016E0,8.039059043E-1
1.005040000E1,-7.650911063E-2,9.839240074E0,7.967232466E-1
1.005536250E1,-8.129751682E-2,9.844018936E0,7.225509286E-1
1.006032656E1,-3.583640978E-2,9.827268600E0,7.704062462E-1
1.006528906E1,4.845864139E-3,9.834450722E0,7.536563873E-1
1.007025312E1,-2.625960298E-2,9.777029037E0,6.842628121E-1
1.007521562E1,-4.721365869E-3,9.769846916E0,7.058010697E-1
1.008017812E1,-6.454767287E-2,9.743529320E0,6.268403530E-1
1.008514219E1,-5.019204319E-2,9.786596298E0,6.794840097E-1
1.009010625E1,-4.300943762E-2,9.755491257E0,6.603399515E-1
