"Time (s)","Gyroscope x (rad/s)","Gyroscope y (rad/s)","Gyroscope z (rad/s)"
0.000000000E0,8.635888994E-2,2.435607016E-1,7.851538062E-1
4.962500000E-3,0.000000000E0,0.000000000E0,0.000000000E0
9.925000000E-3,0.000000000E0,0.000000000E0,0.000000000E0
1.488906300E-2,9.773843922E-4,2.443460980E-4,-1.902408898E-3
1.985156300E-2,9.773843922E-4,2.443460980E-4,-1.902408898E-3
2.481562500E-2,2.181661548E-3,1.094321441E-2,-1.588249579E-3
2.977812500E-2,2.181661548E-3,1.094321441E-2,-1.588249579E-3
3.474218800E-2,4.502949305E-3,2.581341937E-2,-5.585053586E-4
3.970468800E-2,4.502949305E-3,2.581341937E-2,-5.585053586E-4
4.466718800E-2,3.648261726E-1,1.860922456E0,4.373795167E-2
4.963125000E-2,3.648261726E-1,1.860922456E0,4.373795167E-2
5.459375000E-2,4.320562482E-1,2.244336367E0,1.089783609E-1
5.955781300E-2,4.320562482E-1,2.244336367E0,1.089783609E-1
6.452031300E-2,5.287998319E-1,2.611518621E0,1.963146329E-1
6.948437500E-2,5.287998319E-1,2.611518621E0,1.963146329E-1
7.444843800E-2,6.159616113E-1,2.858028889E0,2.944195867E-1
7.941093800E-2,6.159616113E-1,2.858028889E0,2.944195867E-1
8.437343800E-2,6.733654737E-1,2.958577394E0,3.382622600E-1
8.933593800E-2,6.733654737E-1,2.958577394E0,3.382622600E-1
9.430000000E-2,7.123212218E-1,2.946185589E0,3.656290174E-1
9.926250000E-2,7.123212218E-1,2.946185589E0,3.656290174E-1
1.042250000E-1,7.095461488E-1,2.877192736E0,3.882485032E-1
1.091890630E-1,7.095461488E-1,2.877192736E0,3.882485032E-1
1.141515630E-1,6.620208621E-1,2.752855539E0,3.886848092E-1
1.191156250E-1,6.620208621E-1,2.752855539E0,3.886848092E-1
1.240781250E-1,5.894500613E-1,2.642271280E0,3.712315261E-1
1.290421880E-1,5.894500613E-1,2.642271280E0,3.712315261E-1
1.340062500E-1,5.180311799E-1,2.446707249E0,3.361329734E-1
1.389687500E-1,5.180311799E-1,2.446707249E0,3.361329734E-1
1.439312500E-1,4.517959356E-1,2.284496307E0,3.006853163E-1
1.488937500E-1,4.517959356E-1,2.284496307E0,3.006853163E-1
1.538593750E-1,4.018795192E-1,2.093033791E0,2.664070427E-1
1.588218750E-1,4.018795192E-1,2.093033791E0,2.664070427E-1
1.637843750E-1,3.423637748E-1,1.958224535E0,2.398256958E-1
1.687468750E-1,3.423637748E-1,1.958224535E0,2.398256958E-1
1.737109380E-1,2.683618367E-1,1.871516585E0,2.227912843E-1
1.786734380E-1,2.683618367E-1,1.871516585E0,2.227912843E-1
1.836359380E-1,1.935570091E-1,1.712970853E0,2.021963894E-1
1.886000000E-1,1.935570091E-1,1.712970853E0,2.021963894E-1
1.935625000E-1,1.285784096E-1,1.559189916E0,1.795769334E-1
1.985265630E-1,1.285784096E-1,1.559189916E0,1.795769334E-1
2.034890630E-1,8.133234084E-2,1.433561087E0,1.580046564E-1
2.084515630E-1,8.133234084E-2,1.433561087E0,1.580046564E-1
2.134156250E-1,5.773549154E-2,1.284841537E0,1.388234943E-1
2.183781250E-1,5.773549154E-2,1.284841537E0,1.388234943E-1
2.233421880E-1,4.817108810E-2,1.201711535E0,1.267283559E-1
2.283046880E-1,4.817108810E-2,1.201711535E0,1.267283559E-1
2.332687500E-1,4.242895544E-2,1.139787316E0,1.188569218E-1
2.382312500E-1,4.242895544E-2,1.139787316E0,1.188569218E-1
2.431937500E-1,3.637266159E-2,1.065907478E0,1.103048101E-1
2.481578130E-1,3.637266159E-2,1.065907478E0,1.103048101E-1
2.531218750E-1,3.221877664E-2,9.804736376E-1,1.035154760E-1
2.580843750E-1,3.221877664E-2,9.804736376E-1,1.035154760E-1
2.630468750E-1,2.883283980E-2,9.013927579E-1,1.060462072E-1
2.680109380E-1,2.883283980E-2,9.013927579E-1,1.060462072E-1
2.729734380E-1,2.607521974E-2,8.367632031E-1,1.158549562E-1
2.779359380E-1,2.607521974E-2,8.367632031E-1,1.158549562E-1
2.829000000E-1,2.274163999E-2,7.837750316E-1,1.233249679E-1
2.878625000E-1,2.274163999E-2,7.837750316E-1,1.233249679E-1
2.928281250E-1,2.024581842E-2,7.116230726E-1,1.213527396E-1
2.977890630E-1,2.024581842E-2,7.116230726E-1,1.213527396E-1
3.027531250E-1,1.513200440E-2,6.510252357E-1,1.107935011E-1
3.077156250E-1,1.513200440E-2,6.510252357E-1,1.107935011E-1
3.126781250E-1,4.363323096E-3,6.027145386E-1,9.857619554E-2
3.176437500E-1,4.363323096E-3,6.027145386E-1,9.857619554E-2
3.226062500E-1,-1.937315450E-3,5.922774673E-1,9.162978828E-2
3.275687500E-1,-1.937315450E-3,5.922774673E-1,9.162978828E-2
3.325312500E-1,-3.036872949E-3,5.724679828E-1,9.440486133E-2
3.374953130E-1,-3.036872949E-3,5.724679828E-1,9.440486133E-2
3.424593750E-1,-4.223696887E-3,5.474748611E-1,1.016479731E-1
3.474218750E-1,-4.223696887E-3,5.474748611E-1,1.016479731E-1
3.523859380E-1,-5.742133129E-3,5.068610907E-1,1.056971401E-1
3.573484380E-1,-5.742133129E-3,5.068610907E-1,1.056971401E-1
3.623109380E-1,-1.319468953E-2,4.783772826E-1,1.032187715E-1
3.672734380E-1,-1.319468953E-2,4.783772826E-1,1.032187715E-1
3.722375000E-1,-2.872812003E-2,4.205196202E-1,9.155996889E-2
3.772015630E-1,-2.872812003E-2,4.205196202E-1,9.155996889E-2
3.821640630E-1,-5.298819765E-2,3.634822667E-1,7.606144994E-2
3.871265630E-1,-5.298819765E-2,3.634822667E-1,7.606144994E-2
3.920890630E-1,-8.234463632E-2,2.770884633E-1,5.791002512E-2
3.970531250E-1,-8.234463632E-2,2.770884633E-1,5.791002512E-2
4.020156250E-1,-1.117359772E-1,1.944471300E-1,4.167846218E-2
4.069796880E-1,-1.117359772E-1,1.944471300E-1,4.167846218E-2
4.119437500E-1,-1.506219208E-1,1.242674440E-1,3.300417587E-2
4.169062500E-1,-1.506219208E-1,1.242674440E-1,3.300417587E-2
4.218687500E-1,-1.841845959E-1,7.908086479E-2,2.605776489E-2
4.268328130E-1,-1.841845959E-1,7.908086479E-2,2.605776489E-2
4.317953130E-1,-1.971349418E-1,6.263986975E-2,1.644100063E-2
4.367578130E-1,-1.971349418E-1,6.263986975E-2,1.644100063E-2
4.417218750E-1,-1.880068630E-1,6.410594285E-2,7.312929723E-3
4.466859380E-1,-1.880068630E-1,6.410594285E-2,7.312929723E-3
4.516484380E-1,-1.669058353E-1,6.379178166E-2,3.159045940E-3
4.566109380E-1,-1.669058353E-1,6.379178166E-2,3.159045940E-3
4.615734380E-1,-1.425933987E-1,1.104793418E-2,-4.363323096E-4
4.665375000E-1,-1.425933987E-1,1.104793418E-2,-4.363323096E-4
4.715000000E-1,-1.206371561E-1,-1.260127686E-2,-5.759586347E-4
4.764640630E-1,-1.206371561E-1,-1.260127686E-2,-5.759586347E-4
4.814281250E-1,-1.050339118E-1,-5.391322076E-2,-4.537856148E-4
4.863906250E-1,-1.050339118E-1,-5.391322076E-2,-4.537856148E-4
4.913531250E-1,-8.560840040E-2,-1.229584441E-1,-2.809980186E-3
4.963171880E-1,-8.560840040E-2,-1.229584441E-1,-2.809980186E-3
5.012796880E-1,-6.302383542E-2,-1.322086900E-1,-3.682644805E-3
5.062437500E-1,-6.302383542E-2,-1.322086900E-1,-3.682644805E-3
5.112062500E-1,-4.522148147E-2,-1.396961510E-1,5.759586347E-4
5.161687500E-1,-4.522148147E-2,-1.396961510E-1,5.759586347E-4
5.211328130E-1,-3.675663471E-2,-1.401324868E-1,1.080358773E-2
5.260953130E-1,-3.675663471E-2,-1.401324868E-1,1.080358773E-2
5.310578130E-1,-3.762929887E-2,-1.219461560E-1,2.340486459E-2
5.360218750E-1,-3.762929887E-2,-1.219461560E-1,2.340486459E-2
5.409859380E-1,-4.124213010E-2,-1.041787043E-1,3.162536770E-2
5.459468750E-1,-4.124213010E-2,-1.041787043E-1,3.162536770E-2
5.509109380E-1,-4.120722413E-2,-1.071283072E-1,3.019419685E-2
5.558734380E-1,-4.120722413E-2,-1.071283072E-1,3.019419685E-2
5.608375000E-1,-3.731513768E-2,-1.101128235E-1,2.172934823E-2
5.658015630E-1,-3.731513768E-2,-1.101128235E-1,2.172934823E-2
5.707640630E-1,-4.211479425E-2,-1.218588874E-1,1.082104165E-2
5.757265630E-1,-4.211479425E-2,-1.218588874E-1,1.082104165E-2
5.806890630E-1,-5.466371030E-2,-1.399405003E-1,1.239183708E-3
5.856531250E-1,-5.466371030E-2,-1.399405003E-1,1.239183708E-3
5.906171880E-1,-7.073819637E-2,-1.609542668E-1,-3.735004691E-3
5.955796880E-1,-7.073819637E-2,-1.609542668E-1,-3.735004691E-3
6.005437500E-1,-8.347909898E-2,-1.481260955E-1,-5.707226694E-3
6.055062500E-1,-8.347909898E-2,-1.481260955E-1,-5.707226694E-3
6.104687500E-1,-8.321730047E-2,-1.296430528E-1,-1.096066739E-2
6.154328130E-1,-8.321730047E-2,-1.296430528E-1,-1.096066739E-2
6.203953130E-1,-7.393214852E-2,-1.603433937E-1,-1.797689125E-2
6.253578130E-1,-7.393214852E-2,-1.603433937E-1,-1.797689125E-2
6.303218750E-1,-6.211626902E-2,-1.862440854E-1,-1.893682219E-2
6.352843750E-1,-6.211626902E-2,-1.862440854E-1,-1.893682219E-2
6.402484380E-1,-5.063199997E-2,-1.902234405E-1,-1.736602560E-2
6.452109380E-1,-5.063199997E-2,-1.902234405E-1,-1.736602560E-2
6.501734380E-1,-8.604473434E-3,-3.143338114E-2,-2.670353744E-3
6.551375000E-1,-8.604473434E-3,-3.143338114E-2,-2.670353744E-3
6.601000000E-1,-7.382742595E-3,-2.916445211E-2,-2.268928103E-3
6.650640630E-1,-7.382742595E-3,-2.916445211E-2,-2.268928103E-3
6.700265630E-1,-4.328416660E-3,-2.490584925E-2,-1.710422686E-3
6.749890630E-1,-4.328416660E-3,-2.490584925E-2,-1.710422686E-3
6.799531250E-1,-3.839724232E-4,-2.083923109E-2,-1.326450263E-3
6.849421880E-1,-3.839724232E-4,-2.083923109E-2,-1.326450263E-3
6.898796880E-1,2.949606394E-3,-1.865756884E-2,-1.204277156E-3
6.948421880E-1,2.949606394E-3,-1.865756884E-2,-1.204277156E-3
6.998062500E-1,5.550147034E-3,-1.724385284E-2,-9.773843922E-4
7.047687500E-1,5.550147034E-3,-1.724385284E-2,-9.773843922E-4
7.097328130E-1,7.382742595E-3,-1.406735368E-2,-4.363323096E-4
7.146953130E-1,7.382742595E-3,-1.406735368E-2,-4.363323096E-4
7.196578130E-1,8.429939859E-3,-1.027998887E-2,5.934119690E-4
7.246218750E-1,8.429939859E-3,-1.027998887E-2,5.934119690E-4
7.295843750E-1,8.779006079E-3,-8.901178837E-3,1.762782573E-3
7.345484380E-1,8.779006079E-3,-8.901178837E-3,1.762782573E-3
7.395109380E-1,8.185594343E-3,-7.539822254E-3,3.089232836E-3
7.444734380E-1,8.185594343E-3,-7.539822254E-3,3.089232836E-3
7.494375000E-1,3.843215108E-2,-5.023057386E-2,2.647664398E-2
7.544000000E-1,3.843215108E-2,-5.023057386E-2,2.647664398E-2
7.593640630E-1,3.188716620E-2,-6.592108309E-2,3.979350626E-2
7.643281250E-1,3.188716620E-2,-6.592108309E-2,3.979350626E-2
7.692906250E-1,2.853613347E-2,-7.194247097E-2,5.256931856E-2
7.742531250E-1,2.853613347E-2,-7.194247097E-2,5.256931856E-2
7.792156250E-1,1.834340952E-2,-7.644542307E-2,6.398376822E-2
7.841796880E-1,1.834340952E-2,-7.644542307E-2,6.398376822E-2
7.891421880E-1,-6.981316983E-5,-8.393288404E-2,7.047639787E-2
7.941062500E-1,-6.981316983E-5,-8.393288404E-2,7.047639787E-2
7.990687500E-1,-2.230530791E-2,-1.109331250E-1,6.928957254E-2
8.040328130E-1,-2.230530791E-2,-1.109331250E-1,6.928957254E-2
8.089953130E-1,-4.342379048E-2,-9.065239877E-2,6.496115774E-2
8.139593750E-1,-4.342379048E-2,-9.065239877E-2,6.496115774E-2
8.189218750E-1,-5.585053563E-2,-7.559020817E-2,5.967280641E-2
8.238843750E-1,-5.585053563E-2,-7.559020817E-2,5.967280641E-2
8.288484380E-1,-5.543165654E-2,-6.579891592E-2,5.401793867E-2
8.338109380E-1,-5.543165654E-2,-6.579891592E-2,5.401793867E-2
8.387750000E-1,-5.115560070E-2,-4.832816496E-2,4.876450077E-2
8.437375000E-1,-5.115560070E-2,-4.832816496E-2,4.876450077E-2
8.487000000E-1,-4.628613219E-2,-4.153883457E-2,4.380776361E-2
8.536640630E-1,-4.628613219E-2,-4.153883457E-2,4.380776361E-2
8.586265630E-1,-4.457570985E-2,-5.513495207E-2,3.722787276E-2
8.635906250E-1,-4.457570985E-2,-5.513495207E-2,3.722787276E-2
8.685531250E-1,-4.434881732E-2,-7.860963047E-2,3.036872856E-2
8.735171880E-1,-4.434881732E-2,-7.860963047E-2,3.036872856E-2
8.784796880E-1,-4.204498231E-2,-1.016305238E-1,2.572615258E-2
8.834421880E-1,-4.204498231E-2,-1.016305238E-1,2.572615258E-2
8.884062500E-1,-3.721041977E-2,-1.171115935E-1,2.296853252E-2
8.933687500E-1,-3.721041977E-2,-1.171115935E-1,2.296853252E-2
8.983328130E-1,-3.101450019E-2,-1.389980167E-1,1.898918301E-2
9.032953130E-1,-3.101450019E-2,-1.389980167E-1,1.898918301E-2
9.082578130E-1,-2.406809106E-2,-1.715134978E-1,1.663298719E-2
9.132218750E-1,-2.406809106E-2,-1.715134978E-1,1.663298719E-2
9.181843750E-1,-1.872738265E-2,-1.719149351E-1,2.305579931E-2
9.231484380E-1,-1.872738265E-2,-1.719149351E-1,2.305579931E-2
9.281109380E-1,-1.516691130E-2,-1.459444314E-1,3.911282867E-2
9.330750000E-1,-1.516691130E-2,-1.459444314E-1,3.911282867E-2
9.380375000E-1,-1.499237865E-2,-9.046041220E-2,6.021386012E-2
9.430015630E-1,-1.499237865E-2,-9.046041220E-2,6.021386012E-2
9.479640630E-1,-1.089085452E-2,-5.440191180E-2,7.501424849E-2
9.529265630E-1,-1.089085452E-2,-5.440191180E-2,7.501424849E-2
9.578906250E-1,-2.408554312E-3,-7.068583276E-3,8.473573625E-2
9.628531250E-1,-2.408554312E-3,-7.068583276E-3,8.473573625E-2
9.678171880E-1,4.450589418E-3,9.337511845E-3,8.471827954E-2
9.727796880E-1,4.450589418E-3,9.337511845E-3,8.471827954E-2
9.777421880E-1,4.782202188E-3,2.064724453E-2,7.969173044E-2
9.827062500E-1,4.782202188E-3,2.064724453E-2,7.969173044E-2
9.876687500E-1,1.413716702E-3,3.373721614E-2,7.328637689E-2
9.926328130E-1,1.413716702E-3,3.373721614E-2,7.328637689E-2
9.975953130E-1,-1.640609466E-3,4.461061582E-2,6.756169349E-2
1.002557813E0,-1.640609466E-3,4.461061582E-2,6.756169349E-2
1.007521875E0,-2.705260413E-3,3.996803984E-2,6.220353395E-2
1.012484375E0,-2.705260413E-3,3.996803984E-2,6.220353395E-2
1.017448438E0,-3.071779385E-3,4.550073296E-2,5.867796764E-2
1.022410938E0,-3.071779385E-3,4.550073296E-2,5.867796764E-2
1.027375000E0,-5.497787148E-3,5.670574680E-2,5.672319978E-2
1.032337500E0,-5.497787148E-3,5.670574680E-2,5.672319978E-2
1.037301563E0,-1.103048120E-2,5.073672161E-2,5.270894244E-2
1.042264063E0,-1.103048120E-2,5.073672161E-2,5.270894244E-2
1.047226563E0,-1.539380383E-2,4.262094200E-2,4.906120524E-2
1.052190625E0,-1.539380383E-2,4.262094200E-2,4.906120524E-2
1.057153125E0,-1.567305624E-2,3.145083413E-2,4.574507847E-2
1.062117188E0,-1.567305624E-2,3.145083413E-2,4.574507847E-2
1.067079688E0,-2.234021435E-3,5.777040031E-3,8.168140426E-3
1.072042188E0,-2.234021435E-3,5.777040031E-3,8.168140426E-3
1.077006250E0,-1.553343027E-3,6.073745899E-3,7.661995478E-3
1.081968750E0,-1.553343027E-3,6.073745899E-3,7.661995478E-3
1.086932813E0,-1.239183708E-3,5.427973811E-3,7.120943163E-3
1.091895313E0,-1.239183708E-3,5.427973811E-3,7.120943163E-3
1.096857813E0,-3.019419499E-3,1.494001877E-2,3.344050795E-2
1.101821875E0,-3.019419499E-3,1.494001877E-2,3.344050795E-2
1.106784375E0,1.015781611E-2,-2.583087189E-3,2.839650773E-2
1.111748438E0,1.015781611E-2,-2.583087189E-3,2.839650773E-2
1.116710938E0,3.452261165E-2,-3.436553106E-2,2.335250564E-2
1.121673438E0,3.452261165E-2,-3.436553106E-2,2.335250564E-2
1.126637500E0,6.044075266E-2,-5.447172746E-2,1.928588748E-2
1.131601563E0,6.044075266E-2,-5.447172746E-2,1.928588748E-2
1.136564063E0,8.306021988E-2,-1.942551509E-2,1.921607554E-2
1.141526563E0,8.306021988E-2,-1.942551509E-2,1.921607554E-2
1.146489063E0,9.861110151E-2,8.133234456E-3,1.905899495E-2
1.151453125E0,9.861110151E-2,8.133234456E-3,1.905899495E-2
1.156415625E0,1.127831787E-1,3.857177682E-3,1.696459949E-2
1.161379688E0,1.127831787E-1,3.857177682E-3,1.696459949E-2
1.166342188E0,1.226617396E-1,4.886921961E-4,1.488765888E-2
1.171306250E0,1.226617396E-1,4.886921961E-4,1.488765888E-2
1.176268750E0,1.312836707E-1,-2.933898382E-2,1.178097259E-2
1.181232813E0,1.312836707E-1,-2.933898382E-2,1.178097259E-2
1.186195313E0,1.326973885E-1,-1.759291813E-2,1.099557430E-2
1.191159375E0,1.326973885E-1,-1.759291813E-2,1.099557430E-2
1.196121875E0,1.267807186E-1,-2.310816012E-2,9.215338156E-3
1.201084375E0,1.267807186E-1,-2.310816012E-2,9.215338156E-3
1.206048438E0,1.187696531E-1,-5.969025940E-2,5.899212789E-3
1.211012500E0,1.187696531E-1,-5.969025940E-2,5.899212789E-3
1.215975000E0,1.055226028E-1,-9.875072539E-2,7.155850180E-4
1.220937500E0,1.055226028E-1,-9.875072539E-2,7.155850180E-4
1.225900000E0,9.035569429E-2,-1.431519091E-1,-6.632251199E-3
1.230864063E0,9.035569429E-2,-1.431519091E-1,-6.632251199E-3
1.235828125E0,7.759733498E-2,-1.910786480E-1,-1.521927118E-2
1.240789063E0,7.759733498E-2,-1.910786480E-1,-1.521927118E-2
1.245753125E0,6.784094870E-2,-1.949707270E-1,-2.267182618E-2
1.250717188E0,6.784094870E-2,-1.949707270E-1,-2.267182618E-2
1.255679688E0,5.960299447E-2,-1.936442852E-1,-2.954842336E-2
1.260642188E0,5.960299447E-2,-1.936442852E-1,-2.954842336E-2
1.265606250E0,4.759512842E-2,-2.090555429E-1,-3.682644665E-2
1.270570313E0,4.759512842E-2,-2.090555429E-1,-3.682644665E-2
1.275532813E0,3.122393973E-2,-2.287777513E-1,-4.328416660E-2
1.280495313E0,3.122393973E-2,-2.287777513E-1,-4.328416660E-2
1.285459375E0,1.766273193E-2,-2.725680768E-1,-4.864232615E-2
1.290421875E0,1.766273193E-2,-2.725680768E-1,-4.864232615E-2
1.295384375E0,1.115265395E-2,-3.035302162E-1,-4.879940674E-2
1.300348438E0,1.115265395E-2,-3.035302162E-1,-4.879940674E-2
1.305310938E0,1.052433532E-2,-3.077888191E-1,-4.581489414E-2
1.310275000E0,1.052433532E-2,-3.077888191E-1,-4.581489414E-2
1.315237500E0,1.190314535E-2,-2.968979478E-1,-4.188790172E-2
1.320200000E0,1.190314535E-2,-2.968979478E-1,-4.188790172E-2
1.325162500E0,1.228711754E-2,-2.828480601E-1,-3.834488243E-2
1.330126563E0,1.228711754E-2,-2.828480601E-1,-3.834488243E-2
1.335090625E0,1.230457146E-2,-2.930407822E-1,-3.642502055E-2
1.340053125E0,1.230457146E-2,-2.930407822E-1,-3.642502055E-2
1.345017188E0,1.315978263E-2,-3.208962381E-1,-3.548254445E-2
1.349979688E0,1.315978263E-2,-3.208962381E-1,-3.548254445E-2
1.354943750E0,1.368338149E-2,-3.420147300E-1,-3.434807807E-2
1.359906250E0,1.368338149E-2,-3.420147300E-1,-3.434807807E-2
1.364868750E0,1.553343050E-2,-3.640233278E-1,-3.356268257E-2
1.369831250E0,1.553343050E-2,-3.640233278E-1,-3.356268257E-2
1.374795313E0,1.879719645E-2,-3.216467202E-1,-2.967059799E-2
1.379757813E0,1.879719645E-2,-3.216467202E-1,-2.967059799E-2
1.384721875E0,2.113593742E-2,-2.847330272E-1,-2.626720443E-2
1.389684375E0,2.113593742E-2,-2.847330272E-1,-2.626720443E-2
1.394648438E0,2.124065720E-2,-2.387610376E-1,-2.241002768E-2
1.399612500E0,2.124065720E-2,-2.387610376E-1,-2.241002768E-2
1.404575000E0,2.050761878E-2,-1.890889704E-1,-1.844812930E-2
1.409539063E0,2.050761878E-2,-1.890889704E-1,-1.844812930E-2
1.414501563E0,1.801179722E-2,-1.445307136E-1,-1.502728462E-2
1.419464063E0,1.801179722E-2,-1.445307136E-1,-1.502728462E-2
1.424426563E0,1.244419720E-2,-1.020668522E-1,-1.260127686E-2
1.429390625E0,1.244419720E-2,-1.020668522E-1,-1.260127686E-2
1.434353125E0,5.410520826E-3,-3.586651757E-2,-9.075712413E-3
1.439315625E0,5.410520826E-3,-3.586651757E-2,-9.075712413E-3
1.444279688E0,1.972222002E-3,1.801179722E-2,-5.742133129E-3
1.449242188E0,1.972222002E-3,1.801179722E-2,-5.742133129E-3
1.454206250E0,-1.675516134E-3,1.747074537E-2,-5.393067375E-3
1.459168750E0,-1.675516134E-3,1.747074537E-2,-5.393067375E-3
1.464131250E0,-1.040216256E-2,9.616764262E-3,-6.335545331E-3
1.469095313E0,-1.040216256E-2,9.616764262E-3,-6.335545331E-3
1.474057813E0,-2.399827726E-2,-1.354375482E-2,-1.041961554E-2
1.479021875E0,-2.399827726E-2,-1.354375482E-2,-1.041961554E-2
1.483984375E0,-3.672172874E-2,-1.431170013E-2,-1.350884791E-2
1.488946875E0,-3.672172874E-2,-1.431170013E-2,-1.350884791E-2
1.493910938E0,-4.344124347E-2,-3.431317210E-2,-1.460840553E-2
1.498873438E0,-4.344124347E-2,-3.431317210E-2,-1.460840553E-2
1.503837500E0,-8.045967668E-3,-1.110029407E-2,-2.530727303E-3
1.508800000E0,-8.045967668E-3,-1.110029407E-2,-2.530727303E-3
1.513764063E0,-7.522369269E-3,-1.689478755E-2,-2.548180753E-3
1.518726563E0,-7.522369269E-3,-1.689478755E-2,-2.548180753E-3
1.523689063E0,-7.120943163E-3,-1.190314535E-2,-2.181661548E-3
1.528654688E0,-7.120943163E-3,-1.190314535E-2,-2.181661548E-3
1.533617188E0,-3.506366536E-2,-1.494001877E-2,-6.492624991E-3
1.538581250E0,-3.506366536E-2,-1.494001877E-2,-6.492624991E-3
1.543542188E0,-3.036872856E-2,3.248057887E-2,-4.188790335E-4
1.548506250E0,-3.036872856E-2,3.248057887E-2,-4.188790335E-4
1.553468750E0,-2.794272080E-2,1.035329327E-1,5.253441166E-3
1.558431250E0,-2.794272080E-2,1.035329327E-1,5.253441166E-3
1.563395313E0,-1.879719645E-2,1.513375044E-1,9.459684603E-3
1.568357813E0,-1.879719645E-2,1.513375044E-1,9.459684603E-3
1.573321875E0,-3.403391922E-3,1.709026396E-1,1.153662615E-2
1.578285938E0,-3.403391922E-3,1.709026396E-1,1.153662615E-2
1.583248438E0,1.343903504E-2,1.684766263E-1,1.162389293E-2
1.588210938E0,1.343903504E-2,1.684766263E-1,1.162389293E-2
1.593173438E0,2.551671304E-2,1.446703374E-1,1.010545623E-2
1.598137500E0,2.551671304E-2,1.446703374E-1,1.010545623E-2
1.603100000E0,3.007202223E-2,1.322261393E-1,9.337511845E-3
1.608064063E0,3.007202223E-2,1.322261393E-1,9.337511845E-3
1.613026563E0,3.024655581E-2,9.597565234E-2,7.138396613E-3
1.617990625E0,3.024655581E-2,9.597565234E-2,7.138396613E-3
1.622953125E0,2.904227935E-2,8.267624676E-2,6.213372108E-3
1.627915625E0,2.904227935E-2,8.267624676E-2,6.213372108E-3
1.632879688E0,2.754129469E-2,2.782054804E-2,3.106686054E-3
1.637842188E0,2.754129469E-2,2.782054804E-2,3.106686054E-3
1.642806250E0,2.504547499E-2,-6.621779501E-2,-2.111848444E-3
1.647768750E0,2.504547499E-2,-6.621779501E-2,-2.111848444E-3
1.652732813E0,2.263692021E-2,-1.276184767E-1,-6.056292448E-3
1.657695313E0,2.263692021E-2,-1.276184767E-1,-6.056292448E-3
1.662657813E0,2.043780498E-2,-1.691747606E-1,-9.808750823E-3
1.667621875E0,2.043780498E-2,-1.691747606E-1,-9.808750823E-3
1.672584375E0,1.747074537E-2,-1.454033852E-1,-1.068141498E-2
1.677548438E0,1.747074537E-2,-1.454033852E-1,-1.068141498E-2
1.682510938E0,1.570796408E-2,-1.046673954E-1,-1.157153305E-2
1.687475000E0,1.570796408E-2,-1.046673954E-1,-1.157153305E-2
1.692437500E0,1.097812131E-2,-1.189965457E-1,-1.539380383E-2
1.697400000E0,1.097812131E-2,-1.189965457E-1,-1.539380383E-2
1.702364063E0,3.961897455E-3,-1.500284970E-1,-1.977458037E-2
1.707326563E0,3.961897455E-3,-1.500284970E-1,-1.977458037E-2
1.712290625E0,-4.241149873E-3,-1.843591332E-1,-2.406809106E-2
1.717253125E0,-4.241149873E-3,-1.843591332E-1,-2.406809106E-2
1.722217188E0,-1.394518092E-2,-2.146929502E-1,-2.736676298E-2
1.727179688E0,-1.394518092E-2,-2.146929502E-1,-2.736676298E-2
1.732142188E0,-4.729842301E-3,-4.234168679E-2,-5.497787148E-3
1.737106250E0,-4.729842301E-3,-4.234168679E-2,-5.497787148E-3
1.742068750E0,-6.806783844E-3,-5.455899239E-2,-6.073745899E-3
1.747032813E0,-6.806783844E-3,-5.455899239E-2,-6.073745899E-3
1.751995313E0,-8.272860199E-3,-7.068583369E-2,-6.579891313E-3
1.756959375E0,-8.272860199E-3,-7.068583369E-2,-6.579891313E-3
1.761921875E0,-4.865977913E-2,-4.365940988E-1,-3.588397056E-2
1.766884375E0,-4.865977913E-2,-4.365940988E-1,-3.588397056E-2
1.771848438E0,-4.850269854E-2,-4.821646512E-1,-3.672172874E-2
1.776810938E0,-4.850269854E-2,-4.821646512E-1,-3.672172874E-2
1.781775000E0,-4.965461791E-2,-4.605923891E-1,-3.162536770E-2
1.786737500E0,-4.965461791E-2,-4.605923891E-1,-3.162536770E-2
1.791701563E0,-4.942772537E-2,-4.432612658E-1,-2.342231758E-2
1.796664063E0,-4.942772537E-2,-4.432612658E-1,-2.342231758E-2
1.801626563E0,-4.932300374E-2,-4.230678082E-1,-1.488765888E-2
1.806590625E0,-4.932300374E-2,-4.230678082E-1,-1.488765888E-2
1.811553125E0,-4.886921868E-2,-3.753679693E-1,-7.086036727E-3
1.816517188E0,-4.886921868E-2,-3.753679693E-1,-7.086036727E-3
1.821479688E0,-4.824090004E-2,-3.534466326E-1,-4.276056774E-3
1.826443750E0,-4.824090004E-2,-3.534466326E-1,-4.276056774E-3
1.831406250E0,-4.516912252E-2,-3.748443723E-1,-6.859143730E-3
1.836368750E0,-4.516912252E-2,-3.748443723E-1,-6.859143730E-3
1.841332813E0,-4.284783453E-2,-3.695211112E-1,-9.546951391E-3
1.846295313E0,-4.284783453E-2,-3.695211112E-1,-9.546951391E-3
1.851257813E0,-3.829252347E-2,-3.624525368E-1,-1.233947743E-2
1.856221875E0,-3.829252347E-2,-3.624525368E-1,-1.233947743E-2
1.861184375E0,-3.481931984E-2,-3.664842248E-1,-1.553343050E-2
1.866148438E0,-3.481931984E-2,-3.664842248E-1,-1.553343050E-2
1.871110938E0,-3.139847144E-2,-3.689800501E-1,-1.785471849E-2
1.876075000E0,-3.139847144E-2,-3.689800501E-1,-1.785471849E-2
1.881037500E0,-2.869321220E-2,-3.700970709E-1,-1.905899495E-2
1.886001563E0,-2.869321220E-2,-3.700970709E-1,-1.905899495E-2
1.890964063E0,-2.642428502E-2,-3.466747403E-1,-1.963495463E-2
1.895926563E0,-2.642428502E-2,-3.466747403E-1,-1.963495463E-2
1.900890625E0,-2.436479554E-2,-3.328866363E-1,-2.186897583E-2
1.905853125E0,-2.436479554E-2,-3.328866363E-1,-2.186897583E-2
1.910817188E0,-2.361430414E-2,-2.926917076E-1,-2.277654596E-2
1.915779688E0,-2.361430414E-2,-2.926917076E-1,-2.277654596E-2
1.920742188E0,-2.146754973E-2,-2.504547536E-1,-2.263692021E-2
1.925706250E0,-2.146754973E-2,-2.504547536E-1,-2.263692021E-2
1.930668750E0,-1.694714651E-2,-1.817585826E-1,-1.996656694E-2
1.935632813E0,-1.694714651E-2,-1.817585826E-1,-1.996656694E-2
1.940595313E0,-9.826203808E-3,-8.785987645E-2,-1.467821933E-2
1.945559375E0,-9.826203808E-3,-8.785987645E-2,-1.467821933E-2
1.950521875E0,-1.954768784E-3,5.031784251E-2,-6.614797749E-3
1.955484375E0,-1.954768784E-3,5.031784251E-2,-6.614797749E-3
1.960448438E0,6.440265104E-3,1.820552945E-1,1.291543595E-3
1.965410938E0,6.440265104E-3,1.820552945E-1,1.291543595E-3
1.970375000E0,1.539380383E-2,2.145009637E-1,3.630284918E-3
1.975337500E0,1.539380383E-2,2.145009637E-1,3.630284918E-3
1.980301563E0,4.607669078E-3,4.242895544E-2,8.552113432E-4
1.985264063E0,4.607669078E-3,4.242895544E-2,8.552113432E-4
1.990226563E0,7.417649496E-3,4.017747939E-2,6.806784077E-4
1.995190625E0,7.417649496E-3,4.017747939E-2,6.806784077E-4
2.000153125E0,5.133013427E-2,1.942551434E-1,2.705260413E-3
2.005117188E0,5.133013427E-2,1.942551434E-1,2.705260413E-3
2.010079688E0,5.478588492E-2,1.620887220E-1,2.303834539E-3
2.015043750E0,5.478588492E-2,1.620887220E-1,2.303834539E-3
2.020006250E0,5.405284837E-2,1.183507740E-1,2.042035107E-3
2.024970313E0,5.405284837E-2,1.183507740E-1,2.042035107E-3
2.029932813E0,5.340707675E-2,1.198692098E-1,4.974188283E-3
2.034895313E0,5.340707675E-2,1.198692098E-1,4.974188283E-3
2.039859375E0,5.544910952E-2,1.207244247E-1,7.225662936E-3
2.044821875E0,5.544910952E-2,1.207244247E-1,7.225662936E-3
2.049785938E0,5.775294453E-2,7.374016196E-2,5.340707488E-3
2.054748438E0,5.775294453E-2,7.374016196E-2,5.340707488E-3
2.059710938E0,5.871287733E-2,5.733406544E-2,4.171337001E-3
2.064675000E0,5.871287733E-2,5.733406544E-2,4.171337001E-3
2.069637500E0,6.082472578E-2,2.528982051E-2,8.203047328E-4
2.074601563E0,6.082472578E-2,2.528982051E-2,8.203047328E-4
2.079564063E0,6.384414434E-2,9.669124149E-3,-1.186823938E-3
2.084528125E0,6.384414434E-2,9.669124149E-3,-1.186823938E-3
2.089490625E0,6.337290257E-2,5.366887525E-2,3.839724232E-4
2.094453125E0,6.337290257E-2,5.366887525E-2,3.839724232E-4
2.099417188E0,5.831145123E-2,6.527531147E-2,-2.530727303E-3
2.104379688E0,5.831145123E-2,6.527531147E-2,-2.530727303E-3
2.109343750E0,5.162683874E-2,7.791149616E-2,-6.475171540E-3
2.114306250E0,5.162683874E-2,7.791149616E-2,-6.475171540E-3
2.119270313E0,4.630358517E-2,7.719591260E-2,-9.773843922E-3
2.124232813E0,4.630358517E-2,7.719591260E-2,-9.773843922E-3
2.129195313E0,4.120722413E-2,4.869468510E-2,-1.317723561E-2
2.134159375E0,4.120722413E-2,4.869468510E-2,-1.317723561E-2
2.139121875E0,3.729768470E-2,8.499753661E-3,-1.720894687E-2
2.144085938E0,3.729768470E-2,8.499753661E-3,-1.720894687E-2
2.149048438E0,3.342305496E-2,-1.361356769E-2,-1.836086437E-2
2.154010938E0,3.342305496E-2,-1.361356769E-2,-1.836086437E-2
2.158975000E0,3.003711626E-2,3.356268257E-2,-1.541125681E-2
2.163937500E0,3.003711626E-2,3.356268257E-2,-1.541125681E-2
2.168901563E0,2.626720443E-2,3.682644665E-2,-1.310742274E-2
2.173864063E0,2.626720443E-2,3.682644665E-2,-1.310742274E-2
2.178828125E0,2.293362655E-2,2.597049996E-2,-1.117010694E-2
2.183790625E0,2.293362655E-2,2.597049996E-2,-1.117010694E-2
2.188753125E0,3.717551241E-3,5.654866807E-3,-1.727875904E-3
2.193717188E0,3.717551241E-3,5.654866807E-3,-1.727875904E-3
2.198679688E0,3.281218931E-3,5.585053586E-4,-1.850049011E-3
2.203642188E0,3.281218931E-3,5.585053586E-4,-1.850049011E-3
2.208606250E0,1.797689125E-3,2.617993858E-3,-1.588249579E-3
2.213570313E0,1.797689125E-3,2.617993858E-3,-1.588249579E-3
2.218532813E0,-4.712388909E-4,-5.410520826E-4,-1.483529806E-3
2.223495313E0,-4.712388909E-4,-5.410520826E-4,-1.483529806E-3
2.228459375E0,-3.385938704E-3,-5.218534265E-3,-1.727875904E-3
2.233421875E0,-3.385938704E-3,-5.218534265E-3,-1.727875904E-3
2.238385938E0,-5.497787148E-3,-1.401499379E-2,-1.989675453E-3
2.243348438E0,-5.497787148E-3,-1.401499379E-2,-1.989675453E-3
2.248312500E0,-3.438298777E-2,-1.418778151E-1,-1.239183731E-2
2.253275000E0,-3.438298777E-2,-1.418778151E-1,-1.239183731E-2
2.258237500E0,-3.743731230E-2,-2.216568142E-1,-1.466076542E-2
2.263201563E0,-3.743731230E-2,-2.216568142E-1,-1.466076542E-2
2.268164063E0,-3.858922794E-2,-2.971422970E-1,-1.556833647E-2
2.273128125E0,-3.858922794E-2,-2.971422970E-1,-1.556833647E-2
2.278090625E0,-3.867649660E-2,-3.355220854E-1,-1.326450240E-2
2.283053125E0,-3.867649660E-2,-3.355220854E-1,-1.326450240E-2
2.288017188E0,-3.698352724E-2,-4.157374203E-1,-1.183333248E-2
2.292979688E0,-3.698352724E-2,-4.157374203E-1,-1.183333248E-2
2.297942188E0,-3.797836602E-2,-4.015304446E-1,-5.183627829E-3
2.302906250E0,-3.797836602E-2,-4.015304446E-1,-5.183627829E-3
2.307870313E0,-4.056145251E-2,-3.454355597E-1,2.251474652E-3
2.312832813E0,-4.056145251E-2,-3.454355597E-1,2.251474652E-3
2.317796875E0,-3.953170776E-2,-2.941578031E-1,7.051130291E-3
2.322759375E0,-3.953170776E-2,-2.941578031E-1,7.051130291E-3
2.327721875E0,-3.721041977E-2,-2.517811954E-1,1.021017600E-2
2.332684375E0,-3.721041977E-2,-2.517811954E-1,1.021017600E-2
2.337648438E0,-3.433062509E-2,-2.407158166E-1,9.773843922E-3
2.342610938E0,-3.433062509E-2,-2.407158166E-1,9.773843922E-3
2.347575000E0,-3.309144080E-2,-2.449569553E-1,8.517206647E-3
2.352539063E0,-3.309144080E-2,-2.449569553E-1,8.517206647E-3
2.357501563E0,-3.263765574E-2,-2.452187538E-1,8.569566533E-3
2.362464063E0,-3.263765574E-2,-2.452187538E-1,8.569566533E-3
2.367428125E0,-3.134611249E-2,-2.403841913E-1,9.634217247E-3
2.372390625E0,-3.134611249E-2,-2.403841913E-1,9.634217247E-3
2.377354688E0,-2.707005665E-2,-2.636319697E-1,7.749261800E-3
2.382317188E0,-2.707005665E-2,-2.636319697E-1,7.749261800E-3
2.387279688E0,-2.419026382E-2,-2.619390190E-1,7.731808349E-3
2.392242188E0,-2.419026382E-2,-2.619390190E-1,7.731808349E-3
2.397206250E0,-4.188789986E-3,-5.300565064E-2,1.483529806E-3
2.402168750E0,-4.188789986E-3,-5.300565064E-2,1.483529806E-3
2.407132813E0,-3.804817796E-3,-6.433283538E-2,1.396263367E-3
2.412095313E0,-3.804817796E-3,-6.433283538E-2,1.396263367E-3
2.417059375E0,-2.932153177E-3,-7.616616786E-2,1.117010717E-3
2.422023438E0,-2.932153177E-3,-7.616616786E-2,1.117010717E-3
2.426985938E0,-1.186823938E-3,-8.607963473E-2,8.377580671E-4
2.431950000E0,-1.186823938E-3,-8.607963473E-2,8.377580671E-4
2.436912500E0,1.099557383E-3,-9.183922410E-2,5.585053586E-4
2.441875000E0,1.099557383E-3,-9.183922410E-2,5.585053586E-4
2.446837500E0,3.473205259E-3,-8.550368249E-2,9.075712296E-4
2.451801563E0,3.473205259E-3,-8.550368249E-2,9.075712296E-4
2.456764063E0,5.759586580E-3,-8.365362883E-2,9.250245057E-4
2.461728125E0,5.759586580E-3,-8.365362883E-2,9.250245057E-4
2.466690625E0,7.382742595E-3,-7.297221571E-2,1.378810150E-3
2.471653125E0,7.382742595E-3,-7.297221571E-2,1.378810150E-3
2.476617188E0,8.447393775E-3,-7.408922911E-2,1.256637042E-3
2.481579688E0,8.447393775E-3,-7.408922911E-2,1.256637042E-3
2.486543750E0,9.215338156E-3,-7.859217376E-2,1.047197497E-3
2.491506250E0,9.215338156E-3,-7.859217376E-2,1.047197497E-3
2.496468750E0,9.773843922E-3,-8.511970937E-2,9.599310579E-4
2.501432813E0,9.773843922E-3,-8.511970937E-2,9.599310579E-4
2.506395313E0,1.045452245E-2,-9.033824503E-2,1.274090377E-3
2.511359375E0,1.045452245E-2,-9.033824503E-2,1.274090377E-3
2.516321875E0,1.137954649E-2,-9.096655995E-2,2.321287990E-3
2.521285938E0,1.137954649E-2,-9.096655995E-2,2.321287990E-3
2.526248438E0,1.279326342E-2,-1.003913358E-1,3.490658477E-3
2.531210938E0,1.279326342E-2,-1.003913358E-1,3.490658477E-3
2.536175000E0,1.398008689E-2,-9.677850455E-2,5.619960371E-3
2.541137500E0,1.398008689E-2,-9.677850455E-2,5.619960371E-3
2.546101563E0,1.556833647E-2,-9.349729121E-2,7.592182141E-3
2.551064063E0,1.556833647E-2,-9.349729121E-2,7.592182141E-3
2.556026563E0,1.670280099E-2,-9.475392103E-2,8.796459064E-3
2.560990625E0,1.670280099E-2,-9.475392103E-2,8.796459064E-3
2.565954688E0,1.706931926E-2,-1.074250117E-1,9.040805511E-3
2.570917188E0,1.706931926E-2,-1.074250117E-1,9.040805511E-3
2.575879688E0,1.656317525E-2,-1.146332249E-1,9.407324716E-3
2.580843750E0,1.656317525E-2,-1.146332249E-1,9.407324716E-3
2.585806250E0,8.133234084E-2,-6.143733263E-1,4.886921868E-2
2.590768750E0,8.133234084E-2,-6.143733263E-1,4.886921868E-2
2.595732813E0,1.392772701E-2,-1.023984700E-1,9.232792072E-3
2.600695313E0,1.392772701E-2,-1.023984700E-1,9.232792072E-3
2.605657813E0,1.342158206E-2,-9.293878078E-2,9.878563695E-3
2.610621875E0,1.342158206E-2,-9.293878078E-2,9.878563695E-3
2.615584375E0,6.728244573E-2,-4.601909518E-1,5.293583497E-2
2.620548438E0,6.728244573E-2,-4.601909518E-1,5.293583497E-2
2.625510938E0,6.061528623E-2,-4.341157377E-1,4.883431271E-2
2.630475000E0,6.061528623E-2,-4.341157377E-1,4.883431271E-2
2.635437500E0,5.400048569E-2,-4.639259577E-1,4.160865024E-2
2.640401563E0,5.400048569E-2,-4.639259577E-1,4.160865024E-2
2.645364063E0,4.635594413E-2,-4.501727819E-1,3.659955412E-2
2.650326563E0,4.635594413E-2,-4.501727819E-1,3.659955412E-2
2.655290625E0,3.965387866E-2,-3.587000668E-1,3.639011458E-2
2.660253125E0,3.965387866E-2,-3.587000668E-1,3.639011458E-2
2.665217188E0,3.549999744E-2,-2.935294807E-1,3.544763848E-2
2.670179688E0,3.549999744E-2,-2.935294807E-1,3.544763848E-2
2.675142188E0,6.230825558E-3,-5.382595211E-2,6.195918657E-3
2.680106250E0,6.230825558E-3,-5.382595211E-2,6.195918657E-3
2.685070313E0,6.038838997E-3,-6.250023842E-2,5.602506921E-3
2.690032813E0,6.038838997E-3,-6.250023842E-2,5.602506921E-3
2.694996875E0,2.595304511E-2,-3.644247353E-1,2.581341937E-2
2.699959375E0,2.595304511E-2,-3.644247353E-1,2.581341937E-2
2.704921875E0,2.705260413E-3,-7.414158434E-2,3.961897455E-3
2.709884375E0,2.705260413E-3,-7.414158434E-2,3.961897455E-3
2.714848438E0,6.457717973E-4,-7.079055160E-2,3.979350906E-3
2.719810938E0,6.457717973E-4,-7.079055160E-2,3.979350906E-3
2.724775000E0,-3.193952609E-3,-3.807784915E-1,1.912880875E-2
2.729737500E0,-3.193952609E-3,-3.807784915E-1,1.912880875E-2
2.734701563E0,-7.103490178E-3,-3.457497358E-1,1.738347858E-2
2.739664063E0,-7.103490178E-3,-3.457497358E-1,1.738347858E-2
2.744626563E0,-1.097812131E-2,-3.276332021E-1,1.467821933E-2
2.749590625E0,-1.097812131E-2,-3.276332021E-1,1.467821933E-2
2.754553125E0,-1.424188633E-2,-3.711442649E-1,9.267698042E-3
2.759517188E0,-1.424188633E-2,-3.711442649E-1,9.267698042E-3
2.764479688E0,-1.532399096E-2,-3.988077343E-1,5.532693584E-3
2.769443750E0,-1.532399096E-2,-3.988077343E-1,5.532693584E-3
2.774406250E0,-1.211258490E-2,-4.376762211E-1,3.682644805E-3
2.779368750E0,-1.211258490E-2,-4.376762211E-1,3.682644805E-3
2.784332813E0,-9.896016680E-3,-4.863883555E-1,2.600540640E-3
2.789295313E0,-9.896016680E-3,-4.863883555E-1,2.600540640E-3
2.794259375E0,-7.906341925E-3,-5.382769704E-1,2.094394993E-3
2.799221875E0,-7.906341925E-3,-5.382769704E-1,2.094394993E-3
2.804185938E0,-9.704031050E-3,-5.385388136E-1,1.378810150E-3
2.809148438E0,-9.704031050E-3,-5.385388136E-1,1.378810150E-3
2.814110938E0,-1.137954649E-2,-5.855579376E-1,-5.305801053E-3
2.819075000E0,-1.137954649E-2,-5.855579376E-1,-5.305801053E-3
2.824039063E0,-1.380555425E-2,-6.209532619E-1,-1.192059834E-2
2.829001563E0,-1.380555425E-2,-6.209532619E-1,-1.192059834E-2
2.833964063E0,-1.642354764E-2,-6.576226354E-1,-1.839577034E-2
2.838928125E0,-1.642354764E-2,-6.576226354E-1,-1.839577034E-2
2.843890625E0,-3.612831468E-3,-1.324879378E-1,-4.415682983E-3
2.848854688E0,-3.612831468E-3,-1.324879378E-1,-4.415682983E-3
2.853818750E0,-4.276056774E-3,-1.536064297E-1,-5.759586580E-3
2.858779688E0,-4.276056774E-3,-1.536064297E-1,-5.759586580E-3
2.863743750E0,-5.445427261E-3,-1.603608578E-1,-6.265731994E-3
2.868706250E0,-5.445427261E-3,-1.603608578E-1,-6.265731994E-3
2.873670313E0,-6.405358203E-3,-1.593485624E-1,-6.387905218E-3
2.878632813E0,-6.405358203E-3,-1.593485624E-1,-6.387905218E-3
2.883595313E0,-6.789330859E-3,-1.544790864E-1,-6.370451767E-3
2.888559375E0,-6.789330859E-3,-1.544790864E-1,-6.370451767E-3
2.893521875E0,-6.161012221E-3,-1.580919176E-1,-6.771877408E-3
2.898485938E0,-6.161012221E-3,-1.580919176E-1,-6.771877408E-3
2.903448438E0,-5.113814492E-3,-1.677435935E-1,-7.609635592E-3
2.908412500E0,-5.113814492E-3,-1.677435935E-1,-7.609635592E-3
2.913375000E0,-4.468042869E-3,-1.788787991E-1,-8.517206647E-3
2.918337500E0,-4.468042869E-3,-1.788787991E-1,-8.517206647E-3
2.923301563E0,-4.206243437E-3,-1.851096153E-1,-9.320057929E-3
2.928264063E0,-4.206243437E-3,-1.851096153E-1,-9.320057929E-3
2.933228125E0,-3.263765713E-3,-1.893682182E-1,-1.007054932E-2
2.938190625E0,-3.263765713E-3,-1.893682182E-1,-1.007054932E-2
2.943153125E0,-7.749261800E-3,-9.937555790E-1,-5.551892146E-2
2.948117188E0,-7.749261800E-3,-9.937555790E-1,-5.551892146E-2
2.953079688E0,4.904375412E-3,-9.452528954E-1,-5.485569686E-2
2.958043750E0,4.904375412E-3,-9.452528954E-1,-5.485569686E-2
2.963006250E0,2.022836544E-2,-9.056513309E-1,-5.358160660E-2
2.967970313E0,2.022836544E-2,-9.056513309E-1,-5.358160660E-2
2.972932813E0,3.275983036E-2,-9.247975945E-1,-5.586798862E-2
2.977895313E0,3.275983036E-2,-9.247975945E-1,-5.586798862E-2
2.982859375E0,7.627088577E-3,-1.851619780E-1,-1.153662615E-2
2.987821875E0,7.627088577E-3,-1.851619780E-1,-1.153662615E-2
2.992785938E0,4.237659276E-2,-1.052991986E0,-6.768386811E-2
2.997748438E0,4.237659276E-2,-1.052991986E0,-6.768386811E-2
3.002712500E0,3.986331820E-2,-1.013093829E0,-6.686356664E-2
3.007675000E0,3.986331820E-2,-1.013093829E0,-6.686356664E-2
3.012637500E0,3.801327199E-2,-9.963386655E-1,-6.733480096E-2
3.017601563E0,3.801327199E-2,-9.963386655E-1,-6.733480096E-2
3.022564063E0,3.728023171E-2,-9.615367651E-1,-6.799802929E-2
3.027528125E0,3.728023171E-2,-9.615367651E-1,-6.799802929E-2
3.032490625E0,3.570943698E-2,-1.010772467E0,-7.297221571E-2
3.037454688E0,3.570943698E-2,-1.010772467E0,-7.297221571E-2
3.042417188E0,3.070034087E-2,-9.664935470E-1,-7.278022915E-2
3.047379688E0,3.070034087E-2,-9.664935470E-1,-7.278022915E-2
3.052343750E0,2.860594541E-2,-1.010981917E0,-7.457792014E-2
3.057306250E0,2.860594541E-2,-1.010981917E0,-7.457792014E-2
3.062270313E0,2.439970337E-2,-1.016200542E0,-7.257079333E-2
3.067232813E0,2.439970337E-2,-1.016200542E0,-7.257079333E-2
3.072196875E0,1.602212340E-2,-8.865399957E-1,-6.270968169E-2
3.077159375E0,1.602212340E-2,-8.865399957E-1,-6.270968169E-2
3.082121875E0,9.040805511E-3,-8.320508003E-1,-5.647885427E-2
3.087085938E0,9.040805511E-3,-8.320508003E-1,-5.647885427E-2
3.092048438E0,2.303834539E-3,-7.557973862E-1,-5.042256042E-2
3.097012500E0,2.303834539E-3,-7.557973862E-1,-5.042256042E-2
3.101975000E0,-1.413716702E-3,-7.038563490E-1,-4.639085010E-2
3.106939063E0,-1.413716702E-3,-7.038563490E-1,-4.639085010E-2
3.111901563E0,-1.605702913E-3,-6.627713442E-1,-4.283038154E-2
3.116864063E0,-1.605702913E-3,-6.627713442E-1,-4.283038154E-2
3.121828125E0,3.141592606E-4,-1.234471351E-1,-7.714355364E-3
3.126790625E0,3.141592606E-4,-1.234471351E-1,-7.714355364E-3
3.131754688E0,5.235987483E-4,-1.202531829E-1,-7.208209950E-3
3.136718750E0,5.235987483E-4,-1.202531829E-1,-7.208209950E-3
3.141681250E0,4.537856148E-4,-1.105840579E-1,-6.300638430E-3
3.146643750E0,4.537856148E-4,-1.105840579E-1,-6.300638430E-3
3.151606250E0,4.886921961E-4,-1.055749655E-1,-5.445427261E-3
3.156570313E0,4.886921961E-4,-1.055749655E-1,-5.445427261E-3
3.161532813E0,4.450589418E-3,-5.569345355E-1,-2.661627159E-2
3.166496875E0,4.450589418E-3,-5.569345355E-1,-2.661627159E-2
3.171459375E0,9.477137588E-3,-5.134235024E-1,-2.260201424E-2
3.176423438E0,9.477137588E-3,-5.134235024E-1,-2.260201424E-2
3.181385938E0,1.705186628E-2,-4.910309315E-1,-2.155481651E-2
3.186348438E0,1.705186628E-2,-4.910309315E-1,-2.155481651E-2
3.191312500E0,4.258603323E-3,-1.006356850E-1,-4.555309191E-3
3.196275000E0,4.258603323E-3,-1.006356850E-1,-4.555309191E-3
3.201239063E0,4.974188283E-3,-1.158025935E-1,-5.410520826E-3
3.206201563E0,4.974188283E-3,-1.158025935E-1,-5.410520826E-3
3.211164063E0,5.305801053E-3,-1.375842988E-1,-6.562437862E-3
3.216128125E0,5.305801053E-3,-1.375842988E-1,-6.562437862E-3
3.221090625E0,5.218534265E-3,-1.648114473E-1,-7.976154797E-3
3.226054688E0,5.218534265E-3,-1.648114473E-1,-7.976154797E-3
3.231017188E0,4.991641734E-3,-1.962273717E-1,-9.704031050E-3
3.235981250E0,4.991641734E-3,-1.962273717E-1,-9.704031050E-3
3.240943750E0,4.921828397E-3,-2.248507738E-1,-1.125737373E-2
3.245907813E0,4.921828397E-3,-2.248507738E-1,-1.125737373E-2
3.250870313E0,5.288347602E-3,-2.534916103E-1,-1.275835652E-2
3.255832813E0,5.288347602E-3,-2.534916103E-1,-1.275835652E-2
3.260796875E0,4.904375412E-3,-2.952398956E-1,-1.504473854E-2
3.265759375E0,4.904375412E-3,-2.952398956E-1,-1.504473854E-2
3.270721875E0,3.106686054E-3,-3.164281845E-1,-1.631882787E-2
3.275685938E0,3.106686054E-3,-3.164281845E-1,-1.631882787E-2
3.280648438E0,3.141592606E-4,-3.421892524E-1,-1.783726551E-2
3.285612500E0,3.141592606E-4,-3.421892524E-1,-1.783726551E-2
3.290575000E0,-2.635447076E-3,-3.427128494E-1,-1.804670505E-2
3.295539063E0,-2.635447076E-3,-3.427128494E-1,-1.804670505E-2
3.300501563E0,-3.700098023E-3,-3.467271030E-1,-1.809906401E-2
3.305464063E0,-3.700098023E-3,-3.467271030E-1,-1.809906401E-2
3.310428125E0,-3.298672382E-3,-3.669380248E-1,-1.837831736E-2
3.315390625E0,-3.298672382E-3,-3.669380248E-1,-1.837831736E-2
3.320354688E0,-2.652900526E-3,-3.769212961E-1,-1.778490469E-2
3.325317188E0,-2.652900526E-3,-3.769212961E-1,-1.778490469E-2
3.330281250E0,-2.146754880E-3,-3.816162348E-1,-1.656317525E-2
3.335243750E0,-2.146754880E-3,-3.816162348E-1,-1.656317525E-2
3.340206250E0,-1.466076588E-3,-4.045149684E-1,-1.637118869E-2
3.345170313E0,-1.466076588E-3,-4.045149684E-1,-1.637118869E-2
3.350132813E0,-9.250245057E-4,-4.347440600E-1,-1.699950732E-2
3.355096875E0,-9.250245057E-4,-4.347440600E-1,-1.699950732E-2
3.360059375E0,-2.443460980E-4,-4.493001103E-1,-1.675515994E-2
3.365023438E0,-2.443460980E-4,-4.493001103E-1,-1.675515994E-2
3.369985938E0,1.466076588E-3,-4.707152843E-1,-1.698205434E-2
3.374948438E0,1.466076588E-3,-4.707152843E-1,-1.698205434E-2
3.379912500E0,3.281218931E-3,-4.858647585E-1,-1.682497375E-2
3.384875000E0,3.281218931E-3,-4.858647585E-1,-1.682497375E-2
3.389839063E0,4.729842301E-3,-5.376836061E-1,-1.911135577E-2
3.394801563E0,4.729842301E-3,-5.376836061E-1,-1.911135577E-2
3.399765625E0,4.869468510E-3,-5.469163656E-1,-1.958259381E-2
3.404728125E0,4.869468510E-3,-5.469163656E-1,-1.958259381E-2
3.409690625E0,4.869468510E-3,-5.574232340E-1,-2.029817924E-2
3.414654688E0,4.869468510E-3,-5.574232340E-1,-2.029817924E-2
3.419617188E0,5.375613924E-3,-5.971295238E-1,-2.265437320E-2
3.424581250E0,5.375613924E-3,-5.971295238E-1,-2.265437320E-2
3.429543750E0,5.393067375E-3,-6.172356606E-1,-2.398082428E-2
3.434507813E0,5.393067375E-3,-6.172356606E-1,-2.398082428E-2
3.439470313E0,5.358160939E-3,-6.385985017E-1,-2.527236752E-2
3.444432813E0,5.358160939E-3,-6.385985017E-1,-2.527236752E-2
3.449396875E0,5.567600485E-3,-6.582334638E-1,-2.642428502E-2
3.454359375E0,5.567600485E-3,-6.582334638E-1,-2.642428502E-2
3.459323438E0,6.021386012E-3,-6.909235120E-1,-2.830924094E-2
3.464285938E0,6.021386012E-3,-6.909235120E-1,-2.830924094E-2
3.469250000E0,6.091198884E-3,-7.457093596E-1,-3.153809905E-2
3.474212500E0,6.091198884E-3,-7.457093596E-1,-3.153809905E-2
3.479175000E0,5.288347602E-3,-7.925016284E-1,-3.455751762E-2
3.484139063E0,5.288347602E-3,-7.925016284E-1,-3.455751762E-2
3.489101563E0,3.979350906E-3,-8.249647617E-1,-3.700098023E-2
3.494065625E0,3.979350906E-3,-8.249647617E-1,-3.700098023E-2
3.499028125E0,2.583087189E-3,-8.748462796E-1,-4.042182490E-2
3.503992188E0,2.583087189E-3,-8.748462796E-1,-4.042182490E-2
3.508954688E0,1.605702913E-3,-9.120392799E-1,-4.300491139E-2
3.513917188E0,1.605702913E-3,-9.120392799E-1,-4.300491139E-2
3.518881250E0,1.413716702E-3,-9.596168995E-1,-4.591961205E-2
3.523843750E0,1.413716702E-3,-9.596168995E-1,-4.591961205E-2
3.528807813E0,1.099557383E-3,-9.790773392E-1,-4.726351425E-2
3.533770313E0,1.099557383E-3,-9.790773392E-1,-4.726351425E-2
3.538732813E0,6.632251316E-4,-1.007194638E0,-4.911356419E-2
3.543696875E0,6.632251316E-4,-1.007194638E0,-4.911356419E-2
3.548659375E0,2.094395168E-4,-1.029377699E0,-5.070181563E-2
3.553623438E0,2.094395168E-4,-1.029377699E0,-5.070181563E-2
3.558585938E0,-3.141592606E-4,-1.042380452E0,-5.169665068E-2
3.563550000E0,-3.141592606E-4,-1.042380452E0,-5.169665068E-2
3.568512500E0,-5.934119690E-4,-1.064249396E0,-5.307546258E-2
3.573476563E0,-5.934119690E-4,-1.064249396E0,-5.307546258E-2
3.578439063E0,-1.605702913E-3,-1.062137604E0,-5.316272750E-2
3.583401563E0,-1.605702913E-3,-1.062137604E0,-5.316272750E-2
3.588365625E0,-2.775073517E-3,-1.074477077E0,-5.410520732E-2
3.593328125E0,-2.775073517E-3,-1.074477077E0,-5.410520732E-2
3.598292188E0,-3.822271014E-3,-1.097742319E0,-5.567600206E-2
3.603254688E0,-3.822271014E-3,-1.097742319E0,-5.567600206E-2
3.608217188E0,-4.345869645E-3,-1.149421453E0,-5.885250121E-2
3.613181250E0,-4.345869645E-3,-1.149421453E0,-5.885250121E-2
3.618143750E0,-5.340707488E-3,-1.178708076E0,-6.068509817E-2
3.623107813E0,-5.340707488E-3,-1.178708076E0,-6.068509817E-2
3.628070313E0,-6.789330859E-3,-1.182268620E0,-6.098180264E-2
3.633032813E0,-6.789330859E-3,-1.182268620E0,-6.098180264E-2
3.637996875E0,-8.395033889E-3,-1.195026994E0,-6.188937649E-2
3.642959375E0,-8.395033889E-3,-1.195026994E0,-6.188937649E-2
3.647923438E0,-9.965829551E-3,-1.216634154E0,-6.352998316E-2
3.652885938E0,-9.965829551E-3,-1.216634154E0,-6.352998316E-2
3.657850000E0,-1.181587856E-2,-1.210525513E0,-6.372196972E-2
3.662812500E0,-1.181587856E-2,-1.210525513E0,-6.372196972E-2
3.667775000E0,-1.345648803E-2,-1.218641281E0,-6.504841894E-2
3.672739063E0,-1.345648803E-2,-1.218641281E0,-6.504841894E-2
3.677701563E0,-1.497492474E-2,-1.228589654E0,-6.667158008E-2
3.682665625E0,-1.497492474E-2,-1.228589654E0,-6.667158008E-2
3.687628125E0,-1.633628085E-2,-1.211398125E0,-6.651449949E-2
3.692592188E0,-1.633628085E-2,-1.211398125E0,-6.651449949E-2
3.697553125E0,-1.729621366E-2,-1.210263610E0,-6.724753231E-2
3.702517188E0,-1.729621366E-2,-1.210263610E0,-6.724753231E-2
3.707481250E0,-1.799434423E-2,-1.212462783E0,-6.810274720E-2
3.712443750E0,-1.799434423E-2,-1.212462783E0,-6.810274720E-2
3.717407813E0,-1.830850355E-2,-1.231905699E0,-7.014477998E-2
3.722370313E0,-1.830850355E-2,-1.231905699E0,-7.014477998E-2
3.727332813E0,-1.865756884E-2,-1.246008039E0,-7.182029635E-2
3.732296875E0,-1.865756884E-2,-1.246008039E0,-7.182029635E-2
3.737259375E0,-1.916371472E-2,-1.267493010E0,-7.386233658E-2
3.742221875E0,-1.916371472E-2,-1.267493010E0,-7.386233658E-2
3.747185938E0,-1.925098151E-2,-1.287197828E0,-7.559020817E-2
3.752148438E0,-1.925098151E-2,-1.287197828E0,-7.559020817E-2
3.757112500E0,-1.919862255E-2,-1.307303905E0,-7.731808722E-2
3.762075000E0,-1.919862255E-2,-1.307303905E0,-7.731808722E-2
3.767039063E0,-1.911135577E-2,-1.343955874E0,-8.026769012E-2
3.772001563E0,-1.911135577E-2,-1.343955874E0,-8.026769012E-2
3.776964063E0,-1.914626174E-2,-1.375092506E0,-8.295550197E-2
3.781928125E0,-1.914626174E-2,-1.375092506E0,-8.295550197E-2
3.786890625E0,-1.916371472E-2,-1.385651827E0,-8.370599151E-2
3.791853125E0,-1.916371472E-2,-1.385651827E0,-8.370599151E-2
3.796817188E0,-1.947787404E-2,-1.381654978E0,-8.274605870E-2
3.801781250E0,-1.947787404E-2,-1.381654978E0,-8.274605870E-2
3.806743750E0,-1.982693933E-2,-1.384028673E0,-8.185594529E-2
3.811707813E0,-1.982693933E-2,-1.384028673E0,-8.185594529E-2
3.816670313E0,-2.012364566E-2,-1.382335663E0,-8.094836771E-2
3.821634375E0,-2.012364566E-2,-1.382335663E0,-8.094836771E-2
3.826596875E0,-2.028072625E-2,-1.382283330E0,-8.044222742E-2
3.831560938E0,-2.028072625E-2,-1.382283330E0,-8.044222742E-2
3.836523438E0,-2.059488557E-2,-1.373399615E0,-7.998844236E-2
3.841485938E0,-2.059488557E-2,-1.373399615E0,-7.998844236E-2
3.846448438E0,-2.075196430E-2,-1.384220600E0,-8.110544831E-2
3.851412500E0,-2.075196430E-2,-1.384220600E0,-8.110544831E-2
3.856375000E0,-2.111848444E-2,-1.373905778E0,-8.127998561E-2
3.861337500E0,-2.111848444E-2,-1.373905778E0,-8.127998561E-2
3.866301563E0,-2.179916203E-2,-1.369629622E0,-8.173377067E-2
3.871264063E0,-2.179916203E-2,-1.369629622E0,-8.173377067E-2
3.876228125E0,-2.220058814E-2,-1.371898651E0,-8.217009902E-2
3.881190625E0,-2.220058814E-2,-1.371898651E0,-8.217009902E-2
3.886154688E0,-2.237512171E-2,-1.376453876E0,-8.244935423E-2
3.891117188E0,-2.237512171E-2,-1.376453876E0,-8.244935423E-2
3.896081250E0,-2.178170905E-2,-1.384464979E0,-8.260643482E-2
3.901043750E0,-2.178170905E-2,-1.384464979E0,-8.260643482E-2
3.906006250E0,-2.115339041E-2,-1.375336885E0,-8.147197217E-2
3.910970313E0,-2.115339041E-2,-1.375336885E0,-8.147197217E-2
3.915934375E0,-2.078687213E-2,-1.365161657E0,-8.058185130E-2
3.920896875E0,-2.078687213E-2,-1.365161657E0,-8.058185130E-2
3.925859375E0,-2.076941729E-2,-1.350867391E0,-7.997098565E-2
3.930823438E0,-2.076941729E-2,-1.350867391E0,-7.997098565E-2
3.935785938E0,-2.050761878E-2,-1.348528624E0,-8.058185130E-2
3.940748438E0,-2.050761878E-2,-1.348528624E0,-8.058185130E-2
3.945712500E0,-2.005383372E-2,-1.349261642E0,-8.145451546E-2
3.950675000E0,-2.005383372E-2,-1.349261642E0,-8.145451546E-2
3.955639063E0,-1.937315427E-2,-1.361321926E0,-8.299040794E-2
3.960601563E0,-1.937315427E-2,-1.361321926E0,-8.299040794E-2
3.965565625E0,-1.883210242E-2,-1.367605090E0,-8.388052136E-2
3.970528125E0,-1.883210242E-2,-1.367605090E0,-8.388052136E-2
3.975490625E0,-1.829105057E-2,-1.362089872E0,-8.417722583E-2
3.980454688E0,-1.829105057E-2,-1.362089872E0,-8.417722583E-2
3.985417188E0,-1.754055917E-2,-1.364114404E0,-8.508480340E-2
3.990381250E0,-1.754055917E-2,-1.364114404E0,-8.508480340E-2
3.995343750E0,-1.658062823E-2,-1.367552757E0,-8.592256159E-2
4.000307813E0,-1.658062823E-2,-1.367552757E0,-8.592256159E-2
4.005271875E0,-1.516691130E-2,-1.371113181E0,-8.653342724E-2
4.010232813E0,-1.516691130E-2,-1.371113181E0,-8.653342724E-2
4.015196875E0,-1.333431527E-2,-1.379089355E0,-8.695230633E-2
4.020159375E0,-1.333431527E-2,-1.379089355E0,-8.695230633E-2
4.025123438E0,-1.169370580E-2,-1.376925111E0,-8.669050038E-2
4.030085938E0,-1.169370580E-2,-1.376925111E0,-8.669050038E-2
4.035048438E0,-1.073377486E-2,-1.361339331E0,-8.583529294E-2
4.040014063E0,-1.073377486E-2,-1.361339331E0,-8.583529294E-2
4.044976563E0,-1.068141498E-2,-1.343711495E0,-8.524188399E-2
4.049939063E0,-1.068141498E-2,-1.343711495E0,-8.524188399E-2
4.054903125E0,-1.085594762E-2,-1.324373245E0,-8.487536013E-2
4.059865625E0,-1.085594762E-2,-1.324373245E0,-8.487536013E-2
4.064828125E0,-1.089085452E-2,-1.315315008E0,-8.538150787E-2
4.069790625E0,-1.089085452E-2,-1.315315008E0,-8.538150787E-2
4.074754688E0,-1.062905509E-2,-1.302556634E0,-8.557349443E-2
4.079717188E0,-1.062905509E-2,-1.302556634E0,-8.557349443E-2
4.084681250E0,-1.024508290E-2,-1.285190701E0,-8.529423922E-2
4.089645313E0,-1.024508290E-2,-1.285190701E0,-8.529423922E-2
4.094606250E0,-9.878563695E-3,-1.270826578E0,-8.531169593E-2
4.099570313E0,-9.878563695E-3,-1.270826578E0,-8.531169593E-2
4.104532813E0,-9.808750823E-3,-1.256043673E0,-8.515461534E-2
4.109498438E0,-9.808750823E-3,-1.256043673E0,-8.515461534E-2
4.114459375E0,-9.669124149E-3,-1.246531606E0,-8.550368249E-2
4.119423438E0,-9.669124149E-3,-1.246531606E0,-8.550368249E-2
4.124385938E0,-9.372417815E-3,-1.231085420E0,-8.536405116E-2
4.129348438E0,-9.372417815E-3,-1.231085420E0,-8.536405116E-2
4.134312500E0,-8.970992640E-3,-1.217035532E0,-8.513715863E-2
4.139275000E0,-8.970992640E-3,-1.217035532E0,-8.513715863E-2
4.144239063E0,-8.429939859E-3,-1.216930866E0,-8.592256159E-2
4.149201563E0,-8.429939859E-3,-1.216930866E0,-8.592256159E-2
4.154165625E0,-7.958701812E-3,-1.221713066E0,-8.683013171E-2
4.159128125E0,-7.958701812E-3,-1.221713066E0,-8.683013171E-2
4.164090625E0,-7.714355364E-3,-1.212270737E0,-8.637634665E-2
4.169054688E0,-7.714355364E-3,-1.212270737E0,-8.637634665E-2
4.174017188E0,-7.190756500E-3,-1.214888811E0,-8.639379591E-2
4.178981250E0,-7.190756500E-3,-1.214888811E0,-8.639379591E-2
4.183943750E0,-6.544984877E-3,-1.199634552E0,-8.501498401E-2
4.188907813E0,-6.544984877E-3,-1.199634552E0,-8.501498401E-2
4.193870313E0,-6.021386012E-3,-1.178812861E0,-8.339183033E-2
4.198832813E0,-6.021386012E-3,-1.178812861E0,-8.339183033E-2
4.203796875E0,-5.811946467E-3,-1.157694340E0,-8.187339455E-2
4.208759375E0,-5.811946467E-3,-1.157694340E0,-8.187339455E-2
4.213723438E0,-5.619960371E-3,-1.149072409E0,-8.134979755E-2
4.218685938E0,-5.619960371E-3,-1.149072409E0,-8.134979755E-2
4.223650000E0,-5.323254038E-3,-1.145372272E0,-8.119271696E-2
4.228612500E0,-5.323254038E-3,-1.145372272E0,-8.119271696E-2
4.233575000E0,-4.886921961E-3,-1.144796371E0,-8.122762293E-2
4.238539063E0,-4.886921961E-3,-1.144796371E0,-8.122762293E-2
4.243501563E0,-1.996656694E-2,-5.866243362E0,-4.155977964E-1
4.248465625E0,-1.996656694E-2,-5.866243362E0,-4.155977964E-1
4.253428125E0,-1.288053021E-2,-5.336047649E0,-3.773750961E-1
4.258392188E0,-1.288053021E-2,-5.336047649E0,-3.773750961E-1
4.263356250E0,-7.836528122E-3,-4.840775490E0,-3.427128494E-1
4.268318750E0,-7.836528122E-3,-4.840775490E0,-3.427128494E-1
4.273281250E0,-3.752457909E-3,-4.388979435E0,-3.126931787E-1
4.278243750E0,-3.752457909E-3,-4.388979435E0,-3.126931787E-1
4.283207813E0,-5.235987483E-4,-3.997729063E0,-2.875429988E-1
4.288170313E0,-5.235987483E-4,-3.997729063E0,-2.875429988E-1
4.293134375E0,2.024581889E-3,-3.674022675E0,-2.668259442E-1
4.298096875E0,2.024581889E-3,-3.674022675E0,-2.668259442E-1
4.303059375E0,1.466076588E-3,-3.353353500E0,-2.456201911E-1
4.308023438E0,1.466076588E-3,-3.353353500E0,-2.456201911E-1
4.312985938E0,6.981316983E-5,-3.027099133E0,-2.221629620E-1
4.317950000E0,6.981316983E-5,-3.027099133E0,-2.221629620E-1
4.322912500E0,-2.967059845E-4,-5.259898901E-1,-3.857177496E-2
4.327876563E0,-2.967059845E-4,-5.259898901E-1,-3.857177496E-2
4.332839063E0,-2.967059845E-4,-5.132489800E-1,-3.761184588E-2
4.337801563E0,-2.967059845E-4,-5.132489800E-1,-3.761184588E-2
4.342765625E0,-3.141592606E-4,-5.064596534E-1,-3.708824515E-2
4.347728125E0,-3.141592606E-4,-5.064596534E-1,-3.708824515E-2
4.352692188E0,-7.679448463E-4,-5.063549280E-1,-3.708824515E-2
4.357654688E0,-7.679448463E-4,-5.063549280E-1,-3.708824515E-2
4.362618750E0,-1.448623254E-3,-5.053077340E-1,-3.710569814E-2
4.367581250E0,-1.448623254E-3,-5.053077340E-1,-3.710569814E-2
4.372543750E0,-1.989675453E-3,-5.029689670E-1,-3.700098023E-2
4.377507813E0,-1.989675453E-3,-5.029689670E-1,-3.700098023E-2
4.382470313E0,-2.164208330E-3,-5.011538267E-1,-3.684389964E-2
4.387434375E0,-2.164208330E-3,-5.011538267E-1,-3.684389964E-2
4.392396875E0,-2.286381321E-3,-4.993561506E-1,-3.670427576E-2
4.397359375E0,-2.286381321E-3,-4.993561506E-1,-3.670427576E-2
4.402323438E0,-2.356194425E-3,-4.955862463E-1,-3.644247353E-2
4.407285938E0,-2.356194425E-3,-4.955862463E-1,-3.644247353E-2
4.412250000E0,-2.757620299E-3,-4.928111732E-1,-3.625048697E-2
4.417212500E0,-2.757620299E-3,-4.928111732E-1,-3.625048697E-2
4.422176563E0,-2.809980186E-3,-4.936838448E-1,-3.637266159E-2
4.427139063E0,-2.809980186E-3,-4.936838448E-1,-3.637266159E-2
4.432101563E0,-2.844886621E-3,-4.918861389E-1,-3.630284965E-2
4.437065625E0,-2.844886621E-3,-4.918861389E-1,-3.630284965E-2
4.442028125E0,-2.984513063E-3,-4.900709987E-1,-3.619812801E-2
4.446992188E0,-2.984513063E-3,-4.900709987E-1,-3.619812801E-2
4.451954688E0,-3.438298590E-3,-4.887445569E-1,-3.612831607E-2
4.456918750E0,-3.438298590E-3,-4.887445569E-1,-3.612831607E-2
4.461881250E0,-4.415682983E-3,-4.859694839E-1,-3.600614145E-2
4.466843750E0,-4.415682983E-3,-4.859694839E-1,-3.600614145E-2
4.471807813E0,-5.672320258E-3,-4.859345555E-1,-3.607595712E-2
4.476770313E0,-5.672320258E-3,-4.859345555E-1,-3.607595712E-2
4.481734375E0,-6.998770405E-3,-4.846779406E-1,-3.614576906E-2
4.486696875E0,-6.998770405E-3,-4.846779406E-1,-3.614576906E-2
4.491659375E0,-4.043927789E-2,-2.479274988E0,-1.860520989E-1
4.496623438E0,-4.043927789E-2,-2.479274988E0,-1.860520989E-1
4.501587500E0,-3.619812801E-2,-2.290779591E0,-1.725607067E-1
4.506550000E0,-3.619812801E-2,-2.290779591E0,-1.725607067E-1
4.511512500E0,-3.007202223E-2,-2.109265327E0,-1.607797295E-1
4.516476563E0,-3.007202223E-2,-2.109265327E0,-1.607797295E-1
4.521439063E0,-2.335250564E-2,-1.955676317E0,-1.525766850E-1
4.526401563E0,-2.335250564E-2,-1.955676317E0,-1.525766850E-1
4.531365625E0,-1.834340952E-2,-1.755696535E0,-1.412145942E-1
4.536328125E0,-1.834340952E-2,-1.755696535E0,-1.412145942E-1
4.541292188E0,-1.502728462E-2,-1.597971082E0,-1.335874945E-1
4.546256250E0,-1.502728462E-2,-1.597971082E0,-1.335874945E-1
4.551218750E0,-1.150172018E-2,-1.436179042E0,-1.264316440E-1
4.556181250E0,-1.150172018E-2,-1.436179042E0,-1.264316440E-1
4.561145313E0,-1.204277156E-3,-2.516939342E-1,-2.286381274E-2
4.566107813E0,-1.204277156E-3,-2.516939342E-1,-2.286381274E-2
4.571070313E0,-2.792526793E-4,-2.482556254E-1,-2.270673402E-2
4.576034375E0,-2.792526793E-4,-2.482556254E-1,-2.270673402E-2
4.580996875E0,8.726646047E-5,-2.464928478E-1,-2.242748067E-2
4.585960938E0,8.726646047E-5,-2.464928478E-1,-2.242748067E-2
4.590923438E0,-2.268928074E-4,-2.436828762E-1,-2.218313515E-2
4.595885938E0,-2.268928074E-4,-2.436828762E-1,-2.218313515E-2
4.600850000E0,-4.886921961E-4,-2.413790375E-1,-2.197369561E-2
4.605812500E0,-4.886921961E-4,-2.413790375E-1,-2.197369561E-2
4.610776563E0,-6.806784077E-4,-2.376789302E-1,-2.171189524E-2
4.615739063E0,-6.806784077E-4,-2.376789302E-1,-2.171189524E-2
4.620703125E0,-8.028514567E-4,-2.352180183E-1,-2.155481651E-2
4.625665625E0,-8.028514567E-4,-2.352180183E-1,-2.155481651E-2
4.630628125E0,-9.075712296E-4,-2.338392138E-1,-2.150245570E-2
4.635592188E0,-9.075712296E-4,-2.338392138E-1,-2.150245570E-2
4.640554688E0,-9.599310579E-4,-2.348864079E-1,-2.167698927E-2
4.645518750E0,-9.599310579E-4,-2.348864079E-1,-2.167698927E-2
4.650481250E0,-1.029744279E-3,-2.336995900E-1,-2.165953629E-2
4.655445313E0,-1.029744279E-3,-2.336995900E-1,-2.165953629E-2
4.660407813E0,-1.117010717E-3,-2.307150662E-1,-2.146754973E-2
4.665371875E0,-1.117010717E-3,-2.307150662E-1,-2.146754973E-2
4.670334375E0,-1.221730490E-3,-2.264913768E-1,-2.120575123E-2
4.675296875E0,-1.221730490E-3,-2.264913768E-1,-2.120575123E-2
4.680260938E0,-1.256637042E-3,-2.259154171E-1,-2.124065720E-2
4.685223438E0,-1.256637042E-3,-2.259154171E-1,-2.124065720E-2
4.690187500E0,-1.256637042E-3,-2.260899544E-1,-2.146754973E-2
4.695150000E0,-1.256637042E-3,-2.260899544E-1,-2.146754973E-2
4.700112500E0,-1.308996929E-3,-2.229832709E-1,-2.141519077E-2
4.705076563E0,-1.308996929E-3,-2.229832709E-1,-2.141519077E-2
4.710039063E0,-1.274090377E-3,-2.228261828E-1,-2.153736353E-2
4.715003125E0,-1.274090377E-3,-2.228261828E-1,-2.153736353E-2
4.719965625E0,-1.239183708E-3,-2.219535261E-1,-2.155481651E-2
4.724928125E0,-1.239183708E-3,-2.219535261E-1,-2.155481651E-2
4.729892188E0,-9.250245057E-4,-2.211855799E-1,-2.171189524E-2
4.734854688E0,-9.250245057E-4,-2.211855799E-1,-2.171189524E-2
4.739818750E0,-2.967059845E-4,-2.144137025E-1,-2.146754973E-2
4.744781250E0,-2.967059845E-4,-2.144137025E-1,-2.146754973E-2
4.749745313E0,4.537856148E-4,-2.075545490E-1,-2.127556317E-2
4.754707813E0,4.537856148E-4,-2.075545490E-1,-2.127556317E-2
4.759670313E0,1.500983140E-3,-2.022836655E-1,-2.145009674E-2
4.764634375E0,1.500983140E-3,-2.022836655E-1,-2.145009674E-2
4.769596875E0,2.391101094E-3,-1.947438419E-1,-2.165953629E-2
4.774560938E0,2.391101094E-3,-1.947438419E-1,-2.165953629E-2
4.779523438E0,3.036872949E-3,-1.814793348E-1,-2.153736353E-2
4.784487500E0,3.036872949E-3,-1.814793348E-1,-2.153736353E-2
4.789450000E0,3.926991019E-3,-1.574985087E-1,-2.094395086E-2
4.794412500E0,3.926991019E-3,-1.574985087E-1,-2.094395086E-2
4.799376563E0,4.642575979E-3,-1.427330226E-1,-2.099631168E-2
4.804339063E0,4.642575979E-3,-1.427330226E-1,-2.099631168E-2
4.809303125E0,4.939281847E-3,-1.283166111E-1,-2.057743259E-2
4.814265625E0,4.939281847E-3,-1.283166111E-1,-2.057743259E-2
4.819229688E0,5.009094719E-3,-1.178969890E-1,-2.008873969E-2
4.824192188E0,5.009094719E-3,-1.178969890E-1,-2.008873969E-2
4.829154688E0,4.712388851E-3,-1.130798832E-1,-1.961750165E-2
4.834118750E0,4.712388851E-3,-1.130798832E-1,-1.961750165E-2
4.839081250E0,4.380776547E-3,-1.073551998E-1,-1.900663599E-2
4.844045313E0,4.380776547E-3,-1.073551998E-1,-1.900663599E-2
4.849007813E0,4.398229532E-3,-1.127482727E-1,-1.923352852E-2
4.853971875E0,4.398229532E-3,-1.127482727E-1,-1.923352852E-2
4.858934375E0,3.979350906E-3,-1.161865667E-1,-1.932079531E-2
4.863896875E0,3.979350906E-3,-1.161865667E-1,-1.932079531E-2
4.868860938E0,2.914699726E-3,-1.174606606E-1,-1.918116771E-2
4.873823438E0,2.914699726E-3,-1.174606606E-1,-1.918116771E-2
4.878787500E0,1.762782573E-3,-1.163087413E-1,-1.895427518E-2
4.883750000E0,1.762782573E-3,-1.163087413E-1,-1.895427518E-2
4.888714063E0,8.552113432E-4,-1.163960099E-1,-1.884955540E-2
4.893676563E0,8.552113432E-4,-1.163960099E-1,-1.884955540E-2
4.898639063E0,4.712388909E-4,-1.175828278E-1,-1.881464943E-2
4.903603125E0,4.712388909E-4,-1.175828278E-1,-1.881464943E-2
4.908565625E0,3.665191471E-4,-1.167276204E-1,-1.862266287E-2
4.913529688E0,3.665191471E-4,-1.167276204E-1,-1.862266287E-2
4.918492188E0,3.141592606E-4,-1.157153323E-1,-1.850049011E-2
4.923456250E0,3.141592606E-4,-1.157153323E-1,-1.850049011E-2
4.928418750E0,2.617993741E-4,-1.158374995E-1,-1.846558414E-2
4.933381250E0,2.617993741E-4,-1.158374995E-1,-1.846558414E-2
4.938345313E0,2.792526793E-4,-1.147030368E-1,-1.813396998E-2
4.943307813E0,2.792526793E-4,-1.147030368E-1,-1.813396998E-2
4.948271875E0,4.537856148E-4,-1.120675877E-1,-1.771509275E-2
4.953234375E0,4.537856148E-4,-1.120675877E-1,-1.771509275E-2
4.958198438E0,5.061454722E-4,-1.096415818E-1,-1.726130582E-2
4.963160938E0,5.061454722E-4,-1.096415818E-1,-1.726130582E-2
4.968123438E0,5.934119690E-4,-1.072679386E-1,-1.687733456E-2
4.973087500E0,5.934119690E-4,-1.072679386E-1,-1.687733456E-2
4.978050000E0,8.377580671E-4,-1.054178849E-1,-1.654572040E-2
4.983012500E0,8.377580671E-4,-1.054178849E-1,-1.654572040E-2
4.987976563E0,1.326450263E-3,-1.044579521E-1,-1.630137488E-2
4.992940625E0,1.326450263E-3,-1.044579521E-1,-1.630137488E-2
4.997903125E0,2.129301662E-3,-1.032013148E-1,-1.603957638E-2
5.002865625E0,2.129301662E-3,-1.032013148E-1,-1.603957638E-2
5.007829688E0,3.036872949E-3,-9.878563881E-2,-1.551597659E-2
5.012792188E0,3.036872949E-3,-9.878563881E-2,-1.551597659E-2
5.017754688E0,3.647738136E-3,-9.375908971E-2,-1.495747175E-2
5.022718750E0,3.647738136E-3,-9.375908971E-2,-1.495747175E-2
5.027682813E0,3.560471581E-3,-8.648106456E-2,-1.422443334E-2
5.032645313E0,3.560471581E-3,-8.648106456E-2,-1.422443334E-2
5.037607813E0,3.054326167E-3,-8.211774379E-2,-1.373574138E-2
5.042570313E0,3.054326167E-3,-8.211774379E-2,-1.373574138E-2
5.047534375E0,2.827433404E-3,-7.890633494E-2,-1.333431527E-2
5.052496875E0,2.827433404E-3,-7.890633494E-2,-1.333431527E-2
5.057460938E0,2.670353744E-3,-7.532840967E-2,-1.291543618E-2
5.062423438E0,2.670353744E-3,-7.532840967E-2,-1.291543618E-2
5.067385938E0,2.635447076E-3,-7.075564563E-2,-1.240929123E-2
5.072351563E0,2.635447076E-3,-7.075564563E-2,-1.240929123E-2
5.077314063E0,2.443460980E-3,-5.843362212E-2,-1.108284108E-2
5.082276563E0,2.443460980E-3,-5.843362212E-2,-1.108284108E-2
5.087239063E0,2.321287990E-3,-5.089380220E-2,-9.669124149E-3
5.092203125E0,2.321287990E-3,-5.089380220E-2,-9.669124149E-3
5.097165625E0,2.321287990E-3,-4.619886354E-2,-8.098327555E-3
5.102129688E0,2.321287990E-3,-4.619886354E-2,-8.098327555E-3
5.107092188E0,2.356194425E-3,-4.618141055E-2,-6.981316954E-3
5.112054688E0,2.356194425E-3,-4.618141055E-2,-6.981316954E-3
5.117018750E0,2.373647876E-3,-4.410447180E-2,-5.899212789E-3
5.121981250E0,2.373647876E-3,-4.410447180E-2,-5.899212789E-3
5.126943750E0,2.391101094E-3,-4.295255244E-2,-5.340707488E-3
5.131907813E0,2.391101094E-3,-4.295255244E-2,-5.340707488E-3
5.136870313E0,2.216568217E-3,-3.581415489E-2,-4.555309191E-3
5.141832813E0,2.216568217E-3,-3.581415489E-2,-4.555309191E-3
5.146796875E0,2.164208330E-3,-3.321361542E-2,-3.996803891E-3
5.151760938E0,2.164208330E-3,-3.321361542E-2,-3.996803891E-3
5.156723438E0,2.094394993E-3,-2.642428502E-2,-3.176499158E-3
5.161685938E0,2.094394993E-3,-2.642428502E-2,-3.176499158E-3
5.166650000E0,2.076941775E-3,-1.811651699E-2,-2.321287990E-3
5.171612500E0,2.076941775E-3,-1.811651699E-2,-2.321287990E-3
5.176576563E0,1.850049011E-3,-7.522369269E-3,-1.274090377E-3
5.181539063E0,1.850049011E-3,-7.522369269E-3,-1.274090377E-3
5.186503125E0,1.466076588E-3,7.347836159E-3,1.396263397E-4
5.191465625E0,1.466076588E-3,7.347836159E-3,1.396263397E-4
5.196428125E0,7.504915702E-4,1.673770696E-2,1.082104165E-3
5.201392188E0,7.504915702E-4,1.673770696E-2,1.082104165E-3
5.206354688E0,-1.221730490E-4,3.090978041E-2,2.321287990E-3
5.211318750E0,-1.221730490E-4,3.090978041E-2,2.321287990E-3
5.216281250E0,-4.886921961E-4,4.096287861E-2,3.263765713E-3
5.221243750E0,-4.886921961E-4,4.096287861E-2,3.263765713E-3
5.226207813E0,-3.316125658E-4,4.719370231E-2,3.892084118E-3
5.231171875E0,-3.316125658E-4,4.719370231E-2,3.892084118E-3
5.236134375E0,-3.141592606E-4,6.346017122E-2,5.462880712E-3
5.241096875E0,-3.141592606E-4,6.346017122E-2,5.462880712E-3
5.246060938E0,-3.839724232E-4,7.515387982E-2,6.667157635E-3
5.251023438E0,-3.839724232E-4,7.515387982E-2,6.667157635E-3
5.255987500E0,-4.188790335E-4,7.815584540E-2,6.946410518E-3
5.260950000E0,-4.188790335E-4,7.815584540E-2,6.946410518E-3
5.265914063E0,-4.712388909E-4,8.189085126E-2,7.539822254E-3
5.270876563E0,-4.712388909E-4,8.189085126E-2,7.539822254E-3
5.275840625E0,-5.410520826E-4,8.632398397E-2,7.976154797E-3
5.280803125E0,-5.410520826E-4,8.632398397E-2,7.976154797E-3
5.285765625E0,-4.363323096E-4,9.190903604E-2,8.482299745E-3
5.290728125E0,-4.363323096E-4,9.190903604E-2,8.482299745E-3
5.295692188E0,-5.061454722E-4,1.031140536E-1,9.459684603E-3
5.300654688E0,-5.061454722E-4,1.031140536E-1,9.459684603E-3
5.305618750E0,-8.901178953E-4,1.215098202E-1,1.094321441E-2
5.310581250E0,-8.901178953E-4,1.215098202E-1,1.094321441E-2
5.315545313E0,-1.117010717E-3,1.307949722E-1,1.165879890E-2
5.320509375E0,-1.117010717E-3,1.307949722E-1,1.165879890E-2
5.325471875E0,-1.186823938E-3,1.419825405E-1,1.247910410E-2
5.330434375E0,-1.186823938E-3,1.419825405E-1,1.247910410E-2
5.335396875E0,-1.064650831E-3,1.492431015E-1,1.308996975E-2
5.340360938E0,-1.064650831E-3,1.492431015E-1,1.308996975E-2
5.345323438E0,-6.981316837E-4,1.603783071E-1,1.403244678E-2
5.350285938E0,-6.981316837E-4,1.603783071E-1,1.403244678E-2
5.355250000E0,-2.617993741E-4,1.732937396E-1,1.516691130E-2
5.360212500E0,-2.617993741E-4,1.732937396E-1,1.516691130E-2
5.365176563E0,-3.141592606E-4,1.848303676E-1,1.637118869E-2
5.370139063E0,-3.141592606E-4,1.848303676E-1,1.637118869E-2
5.375103125E0,-5.061454722E-4,1.864360720E-1,1.687733456E-2
5.380065625E0,-5.061454722E-4,1.864360720E-1,1.687733456E-2
5.385028125E0,-6.457717973E-4,1.910786480E-1,1.761037298E-2
5.389992188E0,-6.457717973E-4,1.910786480E-1,1.761037298E-2
5.394956250E0,-6.457717973E-4,1.951801628E-1,1.785471849E-2
5.399918750E0,-6.457717973E-4,1.951801628E-1,1.785471849E-2
5.404881250E0,-8.028514567E-4,2.007303238E-1,1.806415804E-2
5.409845313E0,-8.028514567E-4,2.007303238E-1,1.806415804E-2
5.414809375E0,-1.012290944E-3,2.133315951E-1,1.886700839E-2
5.419770313E0,-1.012290944E-3,2.133315951E-1,1.886700839E-2
5.424734375E0,-1.239183708E-3,2.240653634E-1,1.961750165E-2
5.429696875E0,-1.239183708E-3,2.240653634E-1,1.961750165E-2
5.434660938E0,-1.448623254E-3,2.382374406E-1,2.064724453E-2
5.439623438E0,-1.448623254E-3,2.382374406E-1,2.064724453E-2
5.444587500E0,-1.570796361E-3,2.559176385E-1,2.186897583E-2
5.449551563E0,-1.570796361E-3,2.559176385E-1,2.186897583E-2
5.454512500E0,-1.274090377E-3,2.659707367E-1,2.241002768E-2
5.459476563E0,-1.274090377E-3,2.659707367E-1,2.241002768E-2
5.464439063E0,-5.235987483E-4,2.808583677E-1,2.319542505E-2
5.469403125E0,-5.235987483E-4,2.808583677E-1,2.319542505E-2
5.474365625E0,4.014257283E-4,2.963045537E-1,2.371902391E-2
5.479329688E0,4.014257283E-4,2.963045537E-1,2.371902391E-2
5.484292188E0,2.007128671E-3,3.126408160E-1,2.424262278E-2
5.489254688E0,2.007128671E-3,3.126408160E-1,2.424262278E-2
5.494218750E0,3.839724232E-3,3.259053230E-1,2.439970337E-2
5.499181250E0,3.839724232E-3,3.259053230E-1,2.439970337E-2
5.504145313E0,4.974188283E-3,3.382447958E-1,2.460914291E-2
5.509107813E0,4.974188283E-3,3.382447958E-1,2.460914291E-2
5.514070313E0,5.619960371E-3,3.534117043E-1,2.537708730E-2
5.519034375E0,5.619960371E-3,3.534117043E-1,2.537708730E-2
5.523996875E0,6.510077976E-3,3.650705218E-1,2.621484548E-2
5.528960938E0,6.510077976E-3,3.650705218E-1,2.621484548E-2
5.533923438E0,7.260569837E-3,3.803945184E-1,2.743657492E-2
5.538887500E0,7.260569837E-3,3.803945184E-1,2.743657492E-2
5.543850000E0,7.452555932E-3,3.939033449E-1,2.858849242E-2
5.548812500E0,7.452555932E-3,3.939033449E-1,2.858849242E-2
5.553776563E0,7.295476273E-3,3.997502029E-1,2.911209129E-2
5.558739063E0,7.295476273E-3,3.997502029E-1,2.911209129E-2
5.563703125E0,6.946410518E-3,4.108854234E-1,3.033382259E-2
5.568665625E0,6.946410518E-3,4.108854234E-1,3.033382259E-2
5.573629688E0,6.841690745E-3,4.224918485E-1,3.195697814E-2
5.578592188E0,6.841690745E-3,4.224918485E-1,3.195697814E-2
5.583554688E0,6.911503617E-3,4.363323152E-1,3.380702808E-2
5.588518750E0,6.911503617E-3,4.363323152E-1,3.380702808E-2
5.593481250E0,6.771877408E-3,4.586899877E-1,3.612831607E-2
5.598445313E0,6.771877408E-3,4.586899877E-1,3.612831607E-2
5.603407813E0,6.579891313E-3,4.700346291E-1,3.731513768E-2
5.608371875E0,6.579891313E-3,4.700346291E-1,3.731513768E-2
5.613334375E0,6.387905218E-3,4.775220752E-1,3.796090931E-2
5.618296875E0,6.387905218E-3,4.775220752E-1,3.796090931E-2
5.623260938E0,6.230825558E-3,4.853935242E-1,3.857177496E-2
5.628223438E0,6.230825558E-3,4.853935242E-1,3.857177496E-2
5.633187500E0,6.003932562E-3,4.965810776E-1,3.958406672E-2
5.638150000E0,6.003932562E-3,4.965810776E-1,3.958406672E-2
5.643114063E0,5.794493016E-3,5.070006847E-1,4.052654654E-2
5.648076563E0,5.794493016E-3,5.070006847E-1,4.052654654E-2
5.653039063E0,5.131267942E-3,5.147674084E-1,4.120722413E-2
5.658003125E0,5.131267942E-3,5.147674084E-1,4.120722413E-2
5.662965625E0,3.700098023E-3,5.126904845E-1,4.111995548E-2
5.667929688E0,3.700098023E-3,5.126904845E-1,4.111995548E-2
5.672892188E0,8.953538723E-3,2.645325661E0,2.127207220E-1
5.677856250E0,8.953538723E-3,2.645325661E0,2.127207220E-1
5.682818750E0,-2.076941775E-3,2.447579861E0,1.975538135E-1
5.687781250E0,-2.076941775E-3,2.447579861E0,1.975538135E-1
5.692745313E0,-1.937315450E-3,4.474675059E-1,3.618067503E-2
5.697707813E0,-1.937315450E-3,4.474675059E-1,3.618067503E-2
5.702671875E0,-3.403391922E-3,4.577824175E-1,3.708824515E-2
5.707634375E0,-3.403391922E-3,4.577824175E-1,3.708824515E-2
5.712596875E0,-4.520402756E-3,4.652698636E-1,3.775146976E-2
5.717560938E0,-4.520402756E-3,4.652698636E-1,3.775146976E-2
5.722523438E0,-4.747295752E-3,4.721290171E-1,3.827507049E-2
5.727487500E0,-4.747295752E-3,4.721290171E-1,3.827507049E-2
5.732450000E0,-5.113814492E-3,4.700520635E-1,3.813544288E-2
5.737414063E0,-5.113814492E-3,4.700520635E-1,3.813544288E-2
5.742376563E0,-5.235987715E-3,4.805589616E-1,3.902556375E-2
5.747339063E0,-5.235987715E-3,4.805589616E-1,3.902556375E-2
5.752303125E0,-5.375613924E-3,4.887445569E-1,4.005530477E-2
5.757265625E0,-5.375613924E-3,4.887445569E-1,4.005530477E-2
5.762229688E0,-5.497787148E-3,4.952720702E-1,4.131194204E-2
5.767192188E0,-5.497787148E-3,4.952720702E-1,4.131194204E-2
5.772156250E0,-5.829399452E-3,5.067738295E-1,4.302236438E-2
5.777118750E0,-5.829399452E-3,5.067738295E-1,4.302236438E-2
5.782081250E0,-6.300638430E-3,5.158146024E-1,4.436627030E-2
5.787045313E0,-6.300638430E-3,5.158146024E-1,4.436627030E-2
5.792007813E0,-6.527531426E-3,5.251520872E-1,4.581489414E-2
5.796971875E0,-6.527531426E-3,5.251520872E-1,4.581489414E-2
5.801934375E0,-3.522074595E-2,2.772665024E0,2.457598150E-1
5.806898438E0,-3.522074595E-2,2.772665024E0,2.457598150E-1
5.811860938E0,-6.283185445E-3,5.111894608E-1,4.679227620E-2
5.816823438E0,-6.283185445E-3,5.111894608E-1,4.679227620E-2
5.821787500E0,-6.003932562E-3,5.224992037E-1,4.928809777E-2
5.826750000E0,-6.003932562E-3,5.224992037E-1,4.928809777E-2
5.831714063E0,-5.759586580E-3,5.311211348E-1,5.098106712E-2
5.836676563E0,-5.759586580E-3,5.311211348E-1,5.098106712E-2
5.841639063E0,-5.742133129E-3,5.389576554E-1,5.206317082E-2
5.846603125E0,-5.742133129E-3,5.389576554E-1,5.206317082E-2
5.851565625E0,-5.759586580E-3,5.460611582E-1,5.295328796E-2
5.856529688E0,-5.759586580E-3,5.460611582E-1,5.295328796E-2
5.861492188E0,-5.811946467E-3,5.522047281E-1,5.328490213E-2
5.866456250E0,-5.811946467E-3,5.522047281E-1,5.328490213E-2
5.871418750E0,-5.916666240E-3,5.655041337E-1,5.422737822E-2
5.876381250E0,-5.916666240E-3,5.655041337E-1,5.422737822E-2
5.881345313E0,-5.532693584E-3,5.723283887E-1,5.475097895E-2
5.886307813E0,-5.532693584E-3,5.723283887E-1,5.475097895E-2
5.891271875E0,-4.834562074E-3,5.807234049E-1,5.527457595E-2
5.896234375E0,-4.834562074E-3,5.807234049E-1,5.527457595E-2
5.901198438E0,-4.118977115E-3,5.898514986E-1,5.579817668E-2
5.906160938E0,-4.118977115E-3,5.898514986E-1,5.579817668E-2
5.911123438E0,-2.949606394E-3,5.978101492E-1,5.623450875E-2
5.916087500E0,-2.949606394E-3,5.978101492E-1,5.623450875E-2
5.921050000E0,-1.588249579E-3,6.113364697E-1,5.712462589E-2
5.926014063E0,-1.588249579E-3,6.113364697E-1,5.712462589E-2
5.930976563E0,1.396263397E-4,6.293832064E-1,5.843362212E-2
5.935940625E0,1.396263397E-4,6.293832064E-1,5.843362212E-2
5.940903125E0,1.762782573E-3,6.506936550E-1,6.021386012E-2
5.945865625E0,1.762782573E-3,6.506936550E-1,6.021386012E-2
5.950829688E0,3.316125600E-3,6.606943607E-1,6.126105785E-2
5.955792188E0,3.316125600E-3,6.606943607E-1,6.126105785E-2
5.960756250E0,4.799655639E-3,6.663841605E-1,6.199409440E-2
5.965718750E0,4.799655639E-3,6.663841605E-1,6.199409440E-2
5.970682813E0,6.719517522E-3,6.730164289E-1,6.276203692E-2
5.975645313E0,6.719517522E-3,6.730164289E-1,6.276203692E-2
5.980607813E0,7.976154797E-3,6.766641736E-1,6.349507719E-2
5.985571875E0,7.976154797E-3,6.766641736E-1,6.349507719E-2
5.990534375E0,8.953538723E-3,6.801548004E-1,6.443755329E-2
5.995498438E0,8.953538723E-3,6.801548004E-1,6.443755329E-2
6.000460938E0,9.808750823E-3,6.889512539E-1,6.576400250E-2
6.005425000E0,9.808750823E-3,6.889512539E-1,6.576400250E-2
6.010387500E0,1.041961554E-2,6.955311298E-1,6.691592187E-2
6.015350000E0,1.041961554E-2,6.955311298E-1,6.691592187E-2
6.020314063E0,1.103048120E-2,7.001214027E-1,6.784094870E-2
6.025276563E0,1.103048120E-2,7.001214027E-1,6.784094870E-2
6.030240625E0,1.130973361E-2,7.094588876E-1,6.904522330E-2
6.035203125E0,1.130973361E-2,7.094588876E-1,6.904522330E-2
6.040167188E0,1.130973361E-2,7.263013124E-1,7.077310234E-2
6.045129688E0,1.130973361E-2,7.263013124E-1,7.077310234E-2
6.050092188E0,1.171115879E-2,7.573158145E-1,7.328637689E-2
6.055056250E0,1.171115879E-2,7.573158145E-1,7.328637689E-2
6.060018750E0,1.214749180E-2,7.693237066E-1,7.452555746E-2
6.064982813E0,1.214749180E-2,7.693237066E-1,7.452555746E-2
6.069945313E0,1.267109066E-2,7.781724930E-1,7.567747682E-2
6.074909375E0,1.267109066E-2,7.781724930E-1,7.567747682E-2
6.079871875E0,1.336922217E-2,7.836528420E-1,7.655014098E-2
6.084834375E0,1.336922217E-2,7.836528420E-1,7.655014098E-2
6.089798438E0,1.429424621E-2,7.848920226E-1,7.695156336E-2
6.094760938E0,1.429424621E-2,7.848920226E-1,7.695156336E-2
6.099725000E0,1.487020496E-2,7.987499237E-1,7.812093943E-2
6.104687500E0,1.487020496E-2,7.987499237E-1,7.812093943E-2
6.109650000E0,1.460840553E-2,8.109846711E-1,7.897614688E-2
6.114614063E0,1.460840553E-2,8.109846711E-1,7.897614688E-2
6.119576563E0,1.411971357E-2,8.182452321E-1,7.930775732E-2
6.124540625E0,1.411971357E-2,8.182452321E-1,7.930775732E-2
6.129503125E0,1.356120780E-2,8.260818124E-1,7.923794538E-2
6.134467188E0,1.356120780E-2,8.260818124E-1,7.923794538E-2
6.139429688E0,1.312487572E-2,8.308640122E-1,7.885397226E-2
6.144392188E0,1.312487572E-2,8.308640122E-1,7.885397226E-2
6.149356250E0,1.281071641E-2,8.408123851E-1,7.887142897E-2
6.154318750E0,1.281071641E-2,8.408123851E-1,7.887142897E-2
6.159282813E0,1.218239777E-2,8.550367951E-1,7.949974388E-2
6.164245313E0,1.218239777E-2,8.550367951E-1,7.949974388E-2
6.169207813E0,1.089085452E-2,8.669050336E-1,7.984881103E-2
6.174171875E0,1.089085452E-2,8.669050336E-1,7.984881103E-2
6.179134375E0,8.953538723E-3,8.695055842E-1,7.960446924E-2
6.184098438E0,8.953538723E-3,8.695055842E-1,7.960446924E-2
6.189060938E0,6.754423957E-3,8.644790053E-1,7.892379165E-2
6.194025000E0,6.754423957E-3,8.644790053E-1,7.892379165E-2
6.198987500E0,5.044001620E-3,8.526980281E-1,7.778932154E-2
6.203951563E0,5.044001620E-3,8.526980281E-1,7.778932154E-2
6.208914063E0,4.031710327E-3,8.516159654E-1,7.733553648E-2
6.213876563E0,4.031710327E-3,8.516159654E-1,7.733553648E-2
6.218839063E0,3.769911127E-3,8.478984237E-1,7.667231560E-2
6.223803125E0,3.769911127E-3,8.478984237E-1,7.667231560E-2
6.228765625E0,3.246312495E-3,8.410392404E-1,7.567747682E-2
6.233729688E0,3.246312495E-3,8.410392404E-1,7.567747682E-2
6.238692188E0,2.914699726E-3,8.345116973E-1,7.463027537E-2
6.243656250E0,2.914699726E-3,8.345116973E-1,7.463027537E-2
6.248618750E0,2.338741207E-3,8.308290839E-1,7.379251719E-2
6.253582813E0,2.338741207E-3,8.308290839E-1,7.379251719E-2
6.258545313E0,1.762782573E-3,8.340753913E-1,7.330382615E-2
6.263507813E0,1.762782573E-3,8.340753913E-1,7.330382615E-2
6.268471875E0,1.448623254E-3,8.453327417E-1,7.332128286E-2
6.273434375E0,1.448623254E-3,8.453327417E-1,7.332128286E-2
6.278396875E0,1.378810150E-3,8.587543368E-1,7.346090674E-2
6.283360938E0,1.378810150E-3,8.587543368E-1,7.346090674E-2
6.288325000E0,1.169370604E-3,8.743227124E-1,7.396705449E-2
6.293287500E0,1.169370604E-3,8.743227124E-1,7.396705449E-2
6.298250000E0,1.117010717E-3,8.838347197E-1,7.394959778E-2
6.303214063E0,1.117010717E-3,8.838347197E-1,7.394959778E-2
6.308176563E0,9.250245057E-4,8.911302090E-1,7.361798733E-2
6.313140625E0,9.250245057E-4,8.911302090E-1,7.361798733E-2
6.318103125E0,1.204277156E-3,8.888961673E-1,7.239625603E-2
6.323067188E0,1.204277156E-3,8.888961673E-1,7.239625603E-2
6.328029688E0,2.408554312E-3,8.910254836E-1,7.133160532E-2
6.332992188E0,2.408554312E-3,8.910254836E-1,7.133160532E-2
6.337956250E0,3.996803891E-3,9.007295370E-1,7.084291428E-2
6.342918750E0,3.996803891E-3,9.007295370E-1,7.084291428E-2
6.347881250E0,5.811946467E-3,9.144303799E-1,7.084291428E-2
6.352845313E0,5.811946467E-3,9.144303799E-1,7.084291428E-2
6.357809375E0,7.539822254E-3,9.182700515E-1,7.024950534E-2
6.362771875E0,7.539822254E-3,9.182700515E-1,7.024950534E-2
6.367734375E0,8.272860199E-3,9.077631831E-1,6.883578748E-2
6.372698438E0,8.272860199E-3,9.077631831E-1,6.883578748E-2
6.377660938E0,8.307767101E-3,8.967501521E-1,6.750933826E-2
6.382623438E0,8.307767101E-3,8.967501521E-1,6.750933826E-2
6.387587500E0,7.627088577E-3,8.877966404E-1,6.620033830E-2
6.392550000E0,7.627088577E-3,8.877966404E-1,6.620033830E-2
6.397514063E0,6.684611086E-3,8.820545077E-1,6.476917118E-2
6.402476563E0,6.684611086E-3,8.820545077E-1,6.476917118E-2
6.407439063E0,5.811946467E-3,8.912349343E-1,6.398376822E-2
6.412403125E0,5.811946467E-3,8.912349343E-1,6.398376822E-2
6.417367188E0,5.113814492E-3,8.940623403E-1,6.260495633E-2
6.422329688E0,5.113814492E-3,8.940623403E-1,6.260495633E-2
6.427292188E0,4.642575979E-3,8.852658868E-1,6.068509817E-2
6.432254688E0,4.642575979E-3,8.852658868E-1,6.068509817E-2
6.437218750E0,4.328416660E-3,8.749335408E-1,5.925392732E-2
6.442181250E0,4.328416660E-3,8.749335408E-1,5.925392732E-2
6.447145313E0,4.223696887E-3,8.646535873E-1,5.810201168E-2
6.452107813E0,4.223696887E-3,8.646535873E-1,5.810201168E-2
6.457071875E0,4.310963210E-3,8.565377593E-1,5.742133036E-2
6.462034375E0,4.310963210E-3,8.565377593E-1,5.742133036E-2
6.466996875E0,4.677482415E-3,8.501673341E-1,5.703736097E-2
6.471960938E0,4.677482415E-3,8.501673341E-1,5.703736097E-2
6.476923438E0,5.602506921E-3,8.474795222E-1,5.656611919E-2
6.481887500E0,5.602506921E-3,8.474795222E-1,5.656611919E-2
6.486850000E0,7.051130291E-3,8.467465043E-1,5.607742816E-2
6.491814063E0,7.051130291E-3,8.467465043E-1,5.607742816E-2
6.496776563E0,8.185594343E-3,8.416675925E-1,5.529202893E-2
6.501739063E0,8.185594343E-3,8.416675925E-1,5.529202893E-2
6.506703125E0,8.761553094E-3,8.459610939E-1,5.511749908E-2
6.511665625E0,8.761553094E-3,8.459610939E-1,5.511749908E-2
6.516629688E0,8.761553094E-3,8.541641235E-1,5.527457595E-2
6.521592188E0,8.761553094E-3,8.541641235E-1,5.527457595E-2
6.526556250E0,8.272860199E-3,8.617911935E-1,5.548401549E-2
6.531518750E0,8.272860199E-3,8.617911935E-1,5.548401549E-2
6.536481250E0,7.435102481E-3,8.797506690E-1,5.640904233E-2
6.541445313E0,7.435102481E-3,8.797506690E-1,5.640904233E-2
6.546407813E0,6.824237294E-3,8.949699402E-1,5.736897141E-2
6.551371875E0,6.824237294E-3,8.949699402E-1,5.736897141E-2
6.556334375E0,6.475171540E-3,9.140464067E-1,5.871287733E-2
6.561298438E0,6.475171540E-3,9.140464067E-1,5.871287733E-2
6.566260938E0,5.934119225E-3,9.155822396E-1,5.902703479E-2
6.571223438E0,5.934119225E-3,9.155822396E-1,5.902703479E-2
6.576187500E0,4.764748737E-3,9.167341590E-1,5.951572582E-2
6.581150000E0,4.764748737E-3,9.167341590E-1,5.951572582E-2
6.586114063E0,3.281218931E-3,9.257749915E-1,6.049311161E-2
6.591076563E0,3.281218931E-3,9.257749915E-1,6.049311161E-2
6.596039063E0,2.268928103E-3,9.246405363E-1,6.066764519E-2
6.601003125E0,2.268928103E-3,9.246405363E-1,6.066764519E-2
6.605965625E0,2.024581889E-3,9.302954078E-1,6.094689667E-2
6.610929688E0,2.024581889E-3,9.302954078E-1,6.094689667E-2
6.615892188E0,1.919862116E-3,9.365960360E-1,6.124360487E-2
6.620856250E0,1.919862116E-3,9.365960360E-1,6.124360487E-2
6.625818750E0,1.535889693E-3,9.411513209E-1,6.148795038E-2
6.630781250E0,1.535889693E-3,9.411513209E-1,6.148795038E-2
6.635745313E0,1.117010717E-3,9.583777189E-1,6.267477572E-2
6.640707813E0,1.117010717E-3,9.583777189E-1,6.267477572E-2
6.645671875E0,7.155850180E-4,9.603325129E-1,6.293657422E-2
6.650634375E0,7.155850180E-4,9.603325129E-1,6.293657422E-2
6.655598438E0,6.457717973E-4,9.619556665E-1,6.304129213E-2
6.660560938E0,6.457717973E-4,9.619556665E-1,6.304129213E-2
6.665523438E0,1.221730490E-4,9.541366100E-1,6.260495633E-2
6.670487500E0,1.221730490E-4,9.541366100E-1,6.260495633E-2
6.675450000E0,-6.806784077E-4,9.467887282E-1,6.234316155E-2
6.680414063E0,-6.806784077E-4,9.467887282E-1,6.234316155E-2
6.685376563E0,-1.727875904E-3,9.480977654E-1,6.279694289E-2
6.690340625E0,-1.727875904E-3,9.480977654E-1,6.279694289E-2
6.695303125E0,-3.106686054E-3,9.660921097E-1,6.442010403E-2
6.700265625E0,-3.106686054E-3,9.660921097E-1,6.442010403E-2
6.705229688E0,-3.804817796E-3,9.918705821E-1,6.639232486E-2
6.710192188E0,-3.804817796E-3,9.918705821E-1,6.639232486E-2
6.715156250E0,-4.066617228E-3,1.023740292E0,6.869615614E-2
6.720118750E0,-4.066617228E-3,1.023740292E0,6.869615614E-2
6.725082813E0,-4.223696887E-3,1.039797306E0,6.995279342E-2
6.730045313E0,-4.223696887E-3,1.039797306E0,6.995279342E-2
6.735007813E0,-4.502949305E-3,1.045277715E0,7.070329040E-2
6.739971875E0,-4.502949305E-3,1.045277715E0,7.070329040E-2
6.744934375E0,-4.642575979E-3,1.059903502E0,7.222172618E-2
6.749898438E0,-4.642575979E-3,1.059903502E0,7.222172618E-2
6.754860938E0,-4.468042869E-3,1.084233403E0,7.426375896E-2
6.759825000E0,-4.468042869E-3,1.084233403E0,7.426375896E-2
6.764787500E0,-4.363323096E-3,1.105037808E0,7.614871860E-2
6.769750000E0,-4.363323096E-3,1.105037808E0,7.614871860E-2
6.774715625E0,-4.363323096E-3,1.125266075E0,7.778932154E-2
6.779676563E0,-4.363323096E-3,1.125266075E0,7.778932154E-2
6.784640625E0,-4.398229532E-3,1.138687730E0,7.881906629E-2
6.789603125E0,-4.398229532E-3,1.138687730E0,7.881906629E-2
6.794567188E0,-4.572762642E-3,1.142230749E0,7.925540209E-2
6.799529688E0,-4.572762642E-3,1.142230749E0,7.925540209E-2
6.804492188E0,-5.148721393E-3,1.152388573E0,7.979645580E-2
6.809456250E0,-5.148721393E-3,1.152388573E0,7.979645580E-2
6.814418750E0,-5.864306353E-3,1.167101622E0,8.084364980E-2
6.819382813E0,-5.864306353E-3,1.167101622E0,8.084364980E-2
6.824345313E0,-6.579891313E-3,1.161673665E0,8.061675727E-2
6.829309375E0,-6.579891313E-3,1.161673665E0,8.061675727E-2
6.834271875E0,-7.766715251E-3,1.168759704E0,8.138470352E-2
6.839234375E0,-7.766715251E-3,1.168759704E0,8.138470352E-2
6.844198438E0,-8.796459064E-3,1.175566554E0,8.215264976E-2
6.849160938E0,-8.796459064E-3,1.175566554E0,8.215264976E-2
6.854126563E0,-9.791296907E-3,1.179528356E0,8.269369602E-2
6.859087500E0,-9.791296907E-3,1.179528356E0,8.269369602E-2
6.864051563E0,-1.034980267E-2,1.190017819E0,8.354891092E-2
6.869014063E0,-1.034980267E-2,1.190017819E0,8.354891092E-2
6.873978125E0,-1.113520097E-2,1.198203444E0,8.415977657E-2
6.878940625E0,-1.113520097E-2,1.198203444E0,8.415977657E-2
6.883903125E0,-1.183333248E-2,1.218257308E0,8.532914519E-2
6.888867188E0,-1.183333248E-2,1.218257308E0,8.532914519E-2
6.893829688E0,-1.216494478E-2,1.225500345E0,8.515461534E-2
6.898793750E0,-1.216494478E-2,1.225500345E0,8.515461534E-2
6.903756250E0,-1.228711754E-2,1.223877192E0,8.449138701E-2
6.908718750E0,-1.228711754E-2,1.223877192E0,8.449138701E-2
6.913682813E0,-1.275835652E-2,1.234471321E0,8.489281684E-2
6.918645313E0,-1.275835652E-2,1.234471321E0,8.489281684E-2
6.923609375E0,-1.302015595E-2,1.240824342E0,8.555603772E-2
6.928571875E0,-1.302015595E-2,1.240824342E0,8.555603772E-2
6.933535938E0,-1.350884791E-2,1.250755310E0,8.679522574E-2
6.938498438E0,-1.350884791E-2,1.250755310E0,8.679522574E-2
6.943460938E0,-1.403244678E-2,1.261925459E0,8.801695704E-2
6.948425000E0,-1.403244678E-2,1.261925459E0,8.801695704E-2
6.953387500E0,-1.490511186E-2,1.257911205E0,8.822639287E-2
6.958351563E0,-1.490511186E-2,1.257911205E0,8.822639287E-2
6.963314063E0,-1.609193534E-2,1.277877688E0,9.014625847E-2
6.968276563E0,-1.609193534E-2,1.277877688E0,9.014625847E-2
6.973240625E0,-1.778490469E-2,1.288175106E0,9.164723754E-2
6.978203125E0,-1.778490469E-2,1.288175106E0,9.164723754E-2
6.983167188E0,-1.900663599E-2,1.312470198E0,9.396852553E-2
6.988129688E0,-1.900663599E-2,1.312470198E0,9.396852553E-2
6.993092188E0,-1.960004680E-2,1.345037937E0,9.683086723E-2
6.998056250E0,-1.960004680E-2,1.345037937E0,9.683086723E-2
7.003018750E0,-1.994911395E-2,1.368687153E0,9.883799404E-2
7.007982813E0,-1.994911395E-2,1.368687153E0,9.883799404E-2
7.012945313E0,-2.008873969E-2,1.374656200E0,9.944885969E-2
7.017909375E0,-2.008873969E-2,1.374656200E0,9.944885969E-2
7.022871875E0,-2.042035200E-2,1.373923182E0,9.967575222E-2
7.027834375E0,-2.042035200E-2,1.373923182E0,9.967575222E-2
7.032798438E0,-2.085668407E-2,1.373242497E0,1.001295373E-1
7.037760938E0,-2.085668407E-2,1.373242497E0,1.001295373E-1
7.042725000E0,-2.132792398E-2,1.377344012E0,1.010371074E-1
7.047687500E0,-2.132792398E-2,1.377344012E0,1.010371074E-1
7.052651563E0,-2.181661502E-2,1.377797842E0,1.016130671E-1
7.057614063E0,-2.181661502E-2,1.377797842E0,1.016130671E-1
7.062576563E0,-2.281145379E-2,1.386541963E0,1.028522551E-1
7.067540625E0,-2.281145379E-2,1.386541963E0,1.028522551E-1
7.072503125E0,-2.415535599E-2,1.384482384E0,1.033060402E-1
7.077467188E0,-2.415535599E-2,1.384482384E0,1.033060402E-1
7.082429688E0,-2.556907386E-2,1.377152085E0,1.032885835E-1
7.087393750E0,-2.556907386E-2,1.377152085E0,1.032885835E-1
7.092356250E0,-2.590068616E-2,1.383470178E0,1.040565297E-1
7.097320313E0,-2.590068616E-2,1.383470178E0,1.040565297E-1
7.102282813E0,-2.569124661E-2,1.388845801E0,1.043706909E-1
7.107245313E0,-2.569124661E-2,1.388845801E0,1.043706909E-1
7.112209375E0,-2.565634064E-2,1.398986101E0,1.047023013E-1
7.117171875E0,-2.565634064E-2,1.398986101E0,1.047023013E-1
7.122135938E0,-2.611012571E-2,1.404239535E0,1.047721133E-1
7.127098438E0,-2.611012571E-2,1.404239535E0,1.047721133E-1
7.132060938E0,-2.665117756E-2,1.414292693E0,1.051735431E-1
7.137025000E0,-2.665117756E-2,1.414292693E0,1.051735431E-1
7.141987500E0,-2.698278986E-2,1.434119582E0,1.062207371E-1
7.146951563E0,-2.698278986E-2,1.434119582E0,1.062207371E-1
7.151914063E0,-2.684316412E-2,1.432880402E0,1.055051535E-1
7.156878125E0,-2.684316412E-2,1.432880402E0,1.055051535E-1
7.161840625E0,-1.375668496E-1,7.365237236E0,5.395336151E-1
7.166804688E0,-1.375668496E-1,7.365237236E0,5.395336151E-1
7.171767188E0,-2.452187613E-2,1.305471420E0,9.477137774E-2
7.176729688E0,-2.452187613E-2,1.305471420E0,9.477137774E-2
7.181693750E0,-2.452187613E-2,1.312592268E0,9.456194192E-2
7.186656250E0,-2.452187613E-2,1.312592268E0,9.456194192E-2
7.191620313E0,-2.408554405E-2,1.325385571E0,9.513789415E-2
7.196582813E0,-2.408554405E-2,1.325385571E0,9.513789415E-2
7.201546875E0,-2.328269184E-2,1.343781352E0,9.646435082E-2
7.206509375E0,-2.328269184E-2,1.343781352E0,9.646435082E-2
7.211471875E0,-2.267182618E-2,1.379298806E0,9.958848357E-2
7.216435938E0,-2.267182618E-2,1.379298806E0,9.958848357E-2
7.221398438E0,-2.265437320E-2,1.404099941E0,1.019446775E-1
7.226362500E0,-2.265437320E-2,1.404099941E0,1.019446775E-1
7.231325000E0,-2.282890677E-2,1.417905450E0,1.034107581E-1
7.236287500E0,-2.282890677E-2,1.417905450E0,1.034107581E-1
7.241251563E0,-2.286381274E-2,1.429651499E0,1.047721133E-1
7.246214063E0,-2.286381274E-2,1.429651499E0,1.047721133E-1
7.251178125E0,-2.261946723E-2,1.436475754E0,1.056796834E-1
7.256140625E0,-2.261946723E-2,1.436475754E0,1.056796834E-1
7.261103125E0,-2.228785492E-2,1.441903710E0,1.064999923E-1
7.266067188E0,-2.228785492E-2,1.441903710E0,1.064999923E-1
7.271029688E0,-2.195624262E-2,1.443893433E0,1.068839654E-1
7.275993750E0,-2.195624262E-2,1.443893433E0,1.068839654E-1
7.280956250E0,-2.160717547E-2,1.441938639E0,1.068141535E-1
7.285920313E0,-2.160717547E-2,1.441938639E0,1.068141535E-1
7.290882813E0,-2.131047100E-2,1.447227001E0,1.069014147E-1
7.295845313E0,-2.131047100E-2,1.447227001E0,1.069014147E-1
7.300809375E0,-2.061233856E-2,1.454173446E0,1.069014147E-1
7.305771875E0,-2.061233856E-2,1.454173446E0,1.069014147E-1
7.310735938E0,-1.932079531E-2,1.458397150E0,1.067268848E-1
7.315698438E0,-1.932079531E-2,1.458397150E0,1.067268848E-1
7.320662500E0,-1.795943826E-2,1.448780298E0,1.055575162E-1
7.325625000E0,-1.795943826E-2,1.448780298E0,1.055575162E-1
7.330587500E0,-1.713913307E-2,1.442566991E0,1.044055969E-1
7.335551563E0,-1.713913307E-2,1.442566991E0,1.044055969E-1
7.340514063E0,-1.651081443E-2,1.430349708E0,1.025904566E-1
7.345478125E0,-1.651081443E-2,1.430349708E0,1.025904566E-1
7.350440625E0,-1.596976258E-2,1.423403263E0,1.011418328E-1
7.355404688E0,-1.596976258E-2,1.423403263E0,1.011418328E-1
7.360367188E0,-1.544616371E-2,1.415985584E0,9.985028952E-2
7.365329688E0,-1.544616371E-2,1.415985584E0,9.985028952E-2
7.370293750E0,-1.527163107E-2,1.419406414E0,9.941395372E-2
7.375256250E0,-1.527163107E-2,1.419406414E0,9.941395372E-2
7.380220313E0,-1.527163107E-2,1.420942307E0,9.916960448E-2
7.385182813E0,-1.527163107E-2,1.420942307E0,9.916960448E-2
7.390146875E0,-1.525417715E-2,1.425794363E0,9.998991340E-2
7.395109375E0,-1.525417715E-2,1.425794363E0,9.998991340E-2
7.400073438E0,-1.509709843E-2,1.414502144E0,9.979792684E-2
7.405035938E0,-1.509709843E-2,1.414502144E0,9.979792684E-2
7.409998438E0,-1.502728462E-2,1.416072845E0,1.004611477E-1
7.414962500E0,-1.502728462E-2,1.416072845E0,1.004611477E-1
7.419925000E0,-1.507964451E-2,1.409597754E0,1.003738865E-1
7.424887500E0,-1.507964451E-2,1.409597754E0,1.003738865E-1
7.429851563E0,-1.584758982E-2,1.416020513E0,1.014385372E-1
7.434814063E0,-1.584758982E-2,1.416020513E0,1.014385372E-1
7.439778125E0,-1.658062823E-2,1.417364478E0,1.024333760E-1
7.444740625E0,-1.658062823E-2,1.417364478E0,1.024333760E-1
7.449704688E0,-1.710422710E-2,1.415845990E0,1.034805700E-1
7.454667188E0,-1.710422710E-2,1.415845990E0,1.034805700E-1
7.459631250E0,-1.726130582E-2,1.407381177E0,1.043532342E-1
7.464593750E0,-1.726130582E-2,1.407381177E0,1.043532342E-1
7.469556250E0,-1.731366664E-2,1.411639690E0,1.061160192E-1
7.474520313E0,-1.731366664E-2,1.411639690E0,1.061160192E-1
7.479482813E0,-1.720894687E-2,1.417922974E0,1.080184281E-1
7.484446875E0,-1.720894687E-2,1.417922974E0,1.080184281E-1
7.489409375E0,-1.663298719E-2,1.434294105E0,1.109331250E-1
7.494371875E0,-1.663298719E-2,1.434294105E0,1.109331250E-1
7.499335938E0,-1.581268385E-2,1.443369865E0,1.131671518E-1
7.504298438E0,-1.581268385E-2,1.443369865E0,1.131671518E-1
7.509260938E0,-1.495747175E-2,1.433648348E0,1.134987622E-1
7.514225000E0,-1.495747175E-2,1.433648348E0,1.134987622E-1
7.519189063E0,-1.432915311E-2,1.423106551E0,1.132893190E-1
7.524151563E0,-1.432915311E-2,1.423106551E0,1.132893190E-1
7.529114063E0,-1.384046115E-2,1.391341567E0,1.108284071E-1
7.534078125E0,-1.384046115E-2,1.391341567E0,1.108284071E-1
7.539040625E0,-1.317723561E-2,1.359925628E0,1.080184281E-1
7.544004688E0,-1.317723561E-2,1.359925628E0,1.080184281E-1
7.548967188E0,-1.207767799E-2,1.332768321E0,1.056447774E-1
7.553931250E0,-1.207767799E-2,1.332768321E0,1.056447774E-1
7.558893750E0,-1.108284108E-2,1.321720362E0,1.046150327E-1
7.563856250E0,-1.108284108E-2,1.321720362E0,1.046150327E-1
7.568820313E0,-1.066396199E-2,1.307338834E0,1.036725566E-1
7.573782813E0,-1.066396199E-2,1.307338834E0,1.036725566E-1
7.578746875E0,-1.082104165E-2,1.298228264E0,1.033409461E-1
7.583709375E0,-1.082104165E-2,1.298228264E0,1.033409461E-1
7.588671875E0,-1.117010694E-2,1.284527421E0,1.026602685E-1
7.593635938E0,-1.117010694E-2,1.284527421E0,1.026602685E-1
7.598598438E0,-1.123992074E-2,1.270843983E0,1.018050537E-1
7.603562500E0,-1.123992074E-2,1.270843983E0,1.018050537E-1
7.608526563E0,-1.097812131E-2,1.266044378E0,1.016654298E-1
7.613489063E0,-1.097812131E-2,1.266044378E0,1.016654298E-1
7.618451563E0,-1.120501384E-2,1.260267377E0,1.017352417E-1
7.623414063E0,-1.120501384E-2,1.260267377E0,1.017352417E-1
7.628378125E0,-1.202531811E-2,1.256532311E0,1.023635566E-1
7.633340625E0,-1.202531811E-2,1.256532311E0,1.023635566E-1
7.638304688E0,-1.291543618E-2,1.247125030E0,1.027649865E-1
7.643267188E0,-1.291543618E-2,1.247125030E0,1.027649865E-1
7.648231250E0,-1.342158206E-2,1.232551455E0,1.025729999E-1
7.653192188E0,-1.342158206E-2,1.232551455E0,1.025729999E-1
7.658156250E0,-1.385791413E-2,1.223161697E0,1.023984700E-1
7.663120313E0,-1.385791413E-2,1.223161697E0,1.023984700E-1
7.668082813E0,-1.384046115E-2,1.212480187E0,1.015432552E-1
7.673045313E0,-1.384046115E-2,1.212480187E0,1.015432552E-1
7.678009375E0,-1.391027402E-2,1.199145913E0,1.003913358E-1
7.682971875E0,-1.391027402E-2,1.199145913E0,1.003913358E-1
7.687935938E0,-1.404990070E-2,1.186771512E0,9.960594028E-2
7.692898438E0,-1.404990070E-2,1.186771512E0,9.960594028E-2
7.697862500E0,-1.378810126E-2,1.168585181E0,9.847147763E-2
7.702825000E0,-1.378810126E-2,1.168585181E0,9.847147763E-2
7.707789063E0,-1.338667516E-2,1.156071186E0,9.765116870E-2
7.712750000E0,-1.338667516E-2,1.156071186E0,9.765116870E-2
7.717714063E0,-1.282817032E-2,1.157868862E0,9.777334332E-2
7.722678125E0,-1.282817032E-2,1.157868862E0,9.777334332E-2
7.727640625E0,-1.244419720E-2,1.145668983E0,9.677850455E-2
7.732603125E0,-1.244419720E-2,1.145668983E0,9.677850455E-2
7.737567188E0,-1.181587856E-2,1.141096234E0,9.639453143E-2
7.742529688E0,-1.181587856E-2,1.141096234E0,9.639453143E-2
7.747493750E0,-1.047197543E-2,1.129699230E0,9.534733742E-2
7.752457813E0,-1.047197543E-2,1.129699230E0,9.534733742E-2
7.757420313E0,-9.215338156E-3,1.112839341E0,9.398598224E-2
7.762382813E0,-9.215338156E-3,1.112839341E0,9.398598224E-2
7.767345313E0,-8.098327555E-3,1.090499163E0,9.225810319E-2
7.772309375E0,-8.098327555E-3,1.090499163E0,9.225810319E-2
7.777271875E0,-7.539822254E-3,1.073325157E0,9.105382860E-2
7.782235938E0,-7.539822254E-3,1.073325157E0,9.105382860E-2
7.787198438E0,-7.138396613E-3,1.053812385E0,8.937831223E-2
7.792160938E0,-7.138396613E-3,1.053812385E0,8.937831223E-2
7.797125000E0,-6.649704650E-3,1.028976321E0,8.716174215E-2
7.802087500E0,-6.649704650E-3,1.028976321E0,8.716174215E-2
7.807051563E0,-6.649704650E-3,1.002569437E0,8.491026610E-2
7.812015625E0,-6.649704650E-3,1.002569437E0,8.491026610E-2
7.816978125E0,-6.754423957E-3,9.844354987E-1,8.337438107E-2
7.821940625E0,-6.754423957E-3,9.844354987E-1,8.337438107E-2
7.826903125E0,-6.684611086E-3,9.649576545E-1,8.169886470E-2
7.831868750E0,-6.684611086E-3,9.649576545E-1,8.169886470E-2
7.836829688E0,-6.684611086E-3,9.464047551E-1,8.012806624E-2
7.841793750E0,-6.684611086E-3,9.464047551E-1,8.012806624E-2
7.846757813E0,-6.702064537E-3,9.313600659E-1,7.845254987E-2
7.851718750E0,-6.702064537E-3,9.313600659E-1,7.845254987E-2
7.856684375E0,-6.824237294E-3,9.174323082E-1,7.656759769E-2
7.861645313E0,-6.824237294E-3,9.174323082E-1,7.656759769E-2
7.866610938E0,-7.120943163E-3,9.007469416E-1,7.419394702E-2
7.871573438E0,-7.120943163E-3,9.007469416E-1,7.419394702E-2
7.876535938E0,-7.278022822E-3,8.773770332E-1,7.140141726E-2
7.881498438E0,-7.278022822E-3,8.773770332E-1,7.140141726E-2
7.886460938E0,-7.330382708E-3,8.596444726E-1,6.913249195E-2
7.891425000E0,-7.330382708E-3,8.596444726E-1,6.913249195E-2
7.896387500E0,-7.365289610E-3,8.419817090E-1,6.698573381E-2
7.901351563E0,-7.365289610E-3,8.419817090E-1,6.698573381E-2
7.906314063E0,-7.400196046E-3,8.228005767E-1,6.478662044E-2
7.911278125E0,-7.400196046E-3,8.228005767E-1,6.478662044E-2
7.916242188E0,-7.382742595E-3,8.028165698E-1,6.295402348E-2
7.921204688E0,-7.382742595E-3,8.028165698E-1,6.295402348E-2
7.926168750E0,-7.312929723E-3,7.844207883E-1,6.141813472E-2
7.931131250E0,-7.312929723E-3,7.844207883E-1,6.141813472E-2
7.936093750E0,-7.225662936E-3,7.692189813E-1,6.035348400E-2
7.941056250E0,-7.225662936E-3,7.692189813E-1,6.035348400E-2
7.946020313E0,-7.086036727E-3,7.568096519E-1,5.941100791E-2
7.950982813E0,-7.086036727E-3,7.568096519E-1,5.941100791E-2
7.955945313E0,-6.998770405E-3,7.510151863E-1,5.890486389E-2
7.960909375E0,-6.998770405E-3,7.510151863E-1,5.890486389E-2
7.965871875E0,-6.859143730E-3,7.420616150E-1,5.815437064E-2
7.970835938E0,-6.859143730E-3,7.420616150E-1,5.815437064E-2
7.975798438E0,-6.702064537E-3,7.347137928E-1,5.761331692E-2
7.980762500E0,-6.702064537E-3,7.347137928E-1,5.761331692E-2
7.985725000E0,-6.562437862E-3,7.152708173E-1,5.618214980E-2
7.990687500E0,-6.562437862E-3,7.152708173E-1,5.618214980E-2
7.995651563E0,-6.370451767E-3,6.965434551E-1,5.518731102E-2
8.000614063E0,-6.370451767E-3,6.965434551E-1,5.518731102E-2
8.005578125E0,-5.864306353E-3,6.801548004E-1,5.457644537E-2
8.010540625E0,-5.864306353E-3,6.801548004E-1,5.457644537E-2
8.015504688E0,-5.567600485E-3,6.626840830E-1,5.340707675E-2
8.020467188E0,-5.567600485E-3,6.626840830E-1,5.340707675E-2
8.025429688E0,-5.358160939E-3,6.449165940E-1,5.215043947E-2
8.030393750E0,-5.358160939E-3,6.449165940E-1,5.215043947E-2
8.035356250E0,-5.270894151E-3,6.298544407E-1,5.112069473E-2
8.040320313E0,-5.270894151E-3,6.298544407E-1,5.112069473E-2
8.045282813E0,-5.305801053E-3,6.176022291E-1,5.023057386E-2
8.050245313E0,-5.305801053E-3,6.176022291E-1,5.023057386E-2
8.055209375E0,-5.619960371E-3,6.005678177E-1,4.858996719E-2
8.060171875E0,-5.619960371E-3,6.005678177E-1,4.858996719E-2
8.065135938E0,-5.742133129E-3,5.818578601E-1,4.687954485E-2
8.070098438E0,-5.742133129E-3,5.818578601E-1,4.687954485E-2
8.075062500E0,-5.445427261E-3,5.669527650E-1,4.553563893E-2
8.080025000E0,-5.445427261E-3,5.669527650E-1,4.553563893E-2
8.084989063E0,-4.991641734E-3,5.521349311E-1,4.426154867E-2
8.089951563E0,-4.991641734E-3,5.521349311E-1,4.426154867E-2
8.094914063E0,-4.642575979E-3,5.368981957E-1,4.272565991E-2
8.099878125E0,-4.642575979E-3,5.368981957E-1,4.272565991E-2
8.104840625E0,-4.502949305E-3,5.254139304E-1,4.148647562E-2
8.109804688E0,-4.502949305E-3,5.254139304E-1,4.148647562E-2
8.114767188E0,-4.485496320E-3,5.145404935E-1,4.009021446E-2
8.119729688E0,-4.485496320E-3,5.145404935E-1,4.009021446E-2
8.124693750E0,-4.258603323E-3,5.075417161E-1,3.904301673E-2
8.129656250E0,-4.258603323E-3,5.075417161E-1,3.904301673E-2
8.134620313E0,-3.874630900E-3,4.967207015E-1,3.775146976E-2
8.139582813E0,-3.874630900E-3,4.967207015E-1,3.775146976E-2
8.144546875E0,-3.996803891E-3,4.856902361E-1,3.686135262E-2
8.149509375E0,-3.996803891E-3,4.856902361E-1,3.686135262E-2
8.154471875E0,-4.188789986E-3,4.737870693E-1,3.635520861E-2
8.159435938E0,-4.188789986E-3,4.737870693E-1,3.635520861E-2
8.164398438E0,-4.153883550E-3,4.628264010E-1,3.593632951E-2
8.169362500E0,-4.153883550E-3,4.628264010E-1,3.593632951E-2
8.174325000E0,-4.188789986E-3,4.540299475E-1,3.549999744E-2
8.179289063E0,-4.188789986E-3,4.540299475E-1,3.549999744E-2
8.184251563E0,-4.433136433E-3,4.444306493E-1,3.492403775E-2
8.189214063E0,-4.433136433E-3,4.444306493E-1,3.492403775E-2
8.194178125E0,-4.904375412E-3,4.372224212E-1,3.515093029E-2
8.199140625E0,-4.904375412E-3,4.372224212E-1,3.515093029E-2
8.204104688E0,-5.742133129E-3,4.286004901E-1,3.574434295E-2
8.209067188E0,-5.742133129E-3,4.286004901E-1,3.574434295E-2
8.214031250E0,-6.440265104E-3,4.213922918E-1,3.640756756E-2
8.218993750E0,-6.440265104E-3,4.213922918E-1,3.640756756E-2
8.223956250E0,-6.475171540E-3,4.189662933E-1,3.728023171E-2
8.228920313E0,-6.475171540E-3,4.189662933E-1,3.728023171E-2
8.233882813E0,-6.213372108E-3,4.198563993E-1,3.803072497E-2
8.238846875E0,-6.213372108E-3,4.198563993E-1,3.803072497E-2
8.243809375E0,-6.038838997E-3,4.182681441E-1,3.815289587E-2
8.248773438E0,-6.038838997E-3,4.182681441E-1,3.815289587E-2
8.253735938E0,-5.794493016E-3,4.054923356E-1,3.712315485E-2
8.258698438E0,-5.794493016E-3,4.054923356E-1,3.712315485E-2
8.263662500E0,-5.637413356E-3,3.938335478E-1,3.635520861E-2
8.268625000E0,-5.637413356E-3,3.938335478E-1,3.635520861E-2
8.273589063E0,-5.305801053E-3,3.817907870E-1,3.570943698E-2
8.278551563E0,-5.305801053E-3,3.817907870E-1,3.570943698E-2
8.283515625E0,-4.817108624E-3,3.712664247E-1,3.513347730E-2
8.288478125E0,-4.817108624E-3,3.712664247E-1,3.513347730E-2
8.293440625E0,-4.084070213E-3,3.610213399E-1,3.443534672E-2
8.298404688E0,-4.084070213E-3,3.610213399E-1,3.443534672E-2
8.303367188E0,-2.967059612E-3,3.517711163E-1,3.359758854E-2
8.308331250E0,-2.967059612E-3,3.517711163E-1,3.359758854E-2
8.313293750E0,-1.937315450E-3,3.446676135E-1,3.282964230E-2
8.318256250E0,-1.937315450E-3,3.446676135E-1,3.282964230E-2
8.323220313E0,-1.867502346E-3,3.348065019E-1,3.192207217E-2
8.328182813E0,-1.867502346E-3,3.348065019E-1,3.192207217E-2
8.333146875E0,-1.448623254E-3,3.282440603E-1,3.141592816E-2
8.338109375E0,-1.448623254E-3,3.282440603E-1,3.141592816E-2
8.343073438E0,-8.377580671E-4,3.205297291E-1,3.071779385E-2
8.348035938E0,-8.377580671E-4,3.205297291E-1,3.071779385E-2
8.353000000E0,-3.316125658E-4,3.135309517E-1,3.003711626E-2
8.357962500E0,-3.316125658E-4,3.135309517E-1,3.003711626E-2
8.362925000E0,2.792526793E-4,3.064100146E-1,2.928662486E-2
8.367889063E0,2.792526793E-4,3.064100146E-1,2.928662486E-2
8.372851563E0,5.410520826E-4,2.977182567E-1,2.846631967E-2
8.377815625E0,5.410520826E-4,2.977182567E-1,2.846631967E-2
8.382778125E0,5.235987483E-4,2.908416688E-1,2.782054804E-2
8.387740625E0,5.235987483E-4,2.908416688E-1,2.782054804E-2
8.392704688E0,2.967059845E-4,2.817659676E-1,2.691297606E-2
8.397667188E0,2.967059845E-4,2.817659676E-1,2.691297606E-2
8.402631250E0,-8.726646047E-5,2.752907872E-1,2.623229846E-2
8.407593750E0,-8.726646047E-5,2.752907872E-1,2.623229846E-2
8.412556250E0,-2.967059845E-4,2.678033113E-1,2.544690110E-2
8.417520313E0,-2.967059845E-4,2.678033113E-1,2.544690110E-2
8.422482813E0,-2.443460980E-4,2.566506565E-1,2.426007576E-2
8.427446875E0,-2.443460980E-4,2.566506565E-1,2.426007576E-2
8.432409375E0,-4.886921961E-4,2.467022836E-1,2.326523885E-2
8.437373438E0,-4.886921961E-4,2.467022836E-1,2.326523885E-2
8.442335938E0,-9.773843922E-4,2.308023423E-1,2.188642882E-2
8.447300000E0,-9.773843922E-4,2.308023423E-1,2.188642882E-2
8.452262500E0,-1.535889693E-3,2.169967890E-1,2.071705833E-2
8.457225000E0,-1.535889693E-3,2.169967890E-1,2.071705833E-2
8.462189063E0,-1.658062800E-3,2.061059326E-1,1.973967440E-2
8.467151563E0,-1.658062800E-3,2.061059326E-1,1.973967440E-2
8.472115625E0,-1.989675453E-3,2.036973834E-1,1.951278187E-2
8.477078125E0,-1.989675453E-3,2.036973834E-1,1.951278187E-2
8.482040625E0,-2.164208330E-3,2.006954104E-1,1.923352852E-2
8.487004688E0,-2.164208330E-3,2.006954104E-1,1.923352852E-2
8.491967188E0,-2.303834539E-3,1.941504180E-1,1.869247667E-2
8.496931250E0,-2.303834539E-3,1.941504180E-1,1.869247667E-2
8.501893750E0,-2.181661548E-3,1.888446212E-1,1.829105057E-2
8.506857813E0,-2.181661548E-3,1.888446212E-1,1.829105057E-2
8.511820313E0,-1.954768784E-3,1.836435497E-1,1.802925020E-2
8.516784375E0,-1.954768784E-3,1.836435497E-1,1.802925020E-2
8.521746875E0,-1.797689125E-3,1.798212677E-1,1.809906401E-2
8.526709375E0,-1.797689125E-3,1.798212677E-1,1.809906401E-2
8.531673438E0,-1.623156248E-3,1.782330275E-1,1.869247667E-2
8.536635938E0,-1.623156248E-3,1.782330275E-1,1.869247667E-2
8.541600000E0,-1.535889693E-3,1.761909872E-1,1.921607554E-2
8.546562500E0,-1.535889693E-3,1.761909872E-1,1.921607554E-2
8.551525000E0,-1.117010717E-3,1.713738739E-1,1.958259381E-2
8.556489063E0,-1.117010717E-3,1.713738739E-1,1.958259381E-2
8.561451563E0,-2.792526793E-4,1.635373533E-1,1.944296807E-2
8.566415625E0,-2.792526793E-4,1.635373533E-1,1.944296807E-2
8.571378125E0,4.363323096E-4,1.581093818E-1,1.921607554E-2
8.576340625E0,4.363323096E-4,1.581093818E-1,1.921607554E-2
8.581304688E0,8.028514567E-4,1.514247656E-1,1.850049011E-2
8.586267188E0,8.028514567E-4,1.514247656E-1,1.850049011E-2
8.591231250E0,1.099557383E-3,1.445481628E-1,1.757546514E-2
8.596193750E0,1.099557383E-3,1.445481628E-1,1.757546514E-2
8.601157813E0,1.815142459E-3,1.398706883E-1,1.687733456E-2
8.606120313E0,1.815142459E-3,1.398706883E-1,1.687733456E-2
8.611084375E0,2.111848444E-3,1.359785944E-1,1.642354764E-2
8.616046875E0,2.111848444E-3,1.359785944E-1,1.642354764E-2
8.621009375E0,1.413716702E-3,1.318945289E-1,1.577777602E-2
8.625973438E0,1.413716702E-3,1.318945289E-1,1.577777602E-2
8.630935938E0,6.457717973E-4,1.253320873E-1,1.466076542E-2
8.635900000E0,6.457717973E-4,1.253320873E-1,1.466076542E-2
8.640862500E0,2.268928074E-4,1.197121367E-1,1.338667516E-2
8.645826563E0,2.268928074E-4,1.197121367E-1,1.338667516E-2
8.650789063E0,1.396263397E-4,1.127482727E-1,1.158898603E-2
8.655753125E0,1.396263397E-4,1.127482727E-1,1.158898603E-2
8.660715625E0,-2.268928074E-4,1.081056967E-1,1.048942842E-2
8.665678125E0,-2.268928074E-4,1.081056967E-1,1.048942842E-2
8.670642188E0,-3.839724232E-4,1.040739864E-1,1.017526910E-2
8.675604688E0,-3.839724232E-4,1.040739864E-1,1.017526910E-2
8.680568750E0,-2.094395168E-4,1.018574163E-1,1.026253588E-2
8.685531250E0,-2.094395168E-4,1.018574163E-1,1.026253588E-2
8.690495313E0,-1.745329246E-5,9.986773878E-2,1.033234876E-2
8.695457813E0,-1.745329246E-5,9.986773878E-2,1.033234876E-2
8.700420313E0,1.745329209E-4,9.449212253E-2,1.000073645E-2
8.705384375E0,1.745329209E-4,9.449212253E-2,1.000073645E-2
8.710346875E0,2.094395168E-4,9.053023160E-2,9.756390937E-3
8.715310938E0,2.094395168E-4,9.053023160E-2,9.756390937E-3
8.720273438E0,2.792526793E-4,8.768533915E-2,1.001818944E-2
8.725235938E0,2.792526793E-4,8.768533915E-2,1.001818944E-2
8.730200000E0,5.410520826E-4,8.695230633E-2,1.082104165E-2
8.735162500E0,5.410520826E-4,8.695230633E-2,1.082104165E-2
8.740125000E0,1.064650831E-3,8.688248694E-2,1.195550524E-2
8.745089063E0,1.064650831E-3,8.688248694E-2,1.195550524E-2
8.750051563E0,1.518436475E-3,8.634144068E-2,1.267109066E-2
8.755015625E0,1.518436475E-3,8.634144068E-2,1.267109066E-2
8.759978125E0,1.658062800E-3,8.754571527E-2,1.305506285E-2
8.764942188E0,1.658062800E-3,8.754571527E-2,1.305506285E-2
8.769904688E0,1.797689125E-3,8.674286306E-2,1.298524998E-2
8.774867188E0,1.797689125E-3,8.674286306E-2,1.298524998E-2
8.779831250E0,2.076941775E-3,8.895943314E-2,1.308996975E-2
8.784793750E0,2.076941775E-3,8.895943314E-2,1.308996975E-2
8.789757813E0,2.862340072E-3,8.925613761E-2,1.275835652E-2
8.794720313E0,2.862340072E-3,8.925613761E-2,1.275835652E-2
8.799682813E0,1.822123677E-2,4.475547671E-1,6.284930557E-2
8.804646875E0,1.822123677E-2,4.475547671E-1,6.284930557E-2
8.809610938E0,1.715658605E-2,3.854908645E-1,5.469861999E-2
8.814573438E0,1.715658605E-2,3.854908645E-1,5.469861999E-2
8.819535938E0,1.488765888E-2,3.460289836E-1,4.895648360E-2
8.824500000E0,1.488765888E-2,3.460289836E-1,4.895648360E-2
8.829462500E0,1.338667516E-2,3.115761876E-1,4.262094200E-2
8.834426563E0,1.338667516E-2,3.115761876E-1,4.262094200E-2
8.839389063E0,1.281071641E-2,2.672099173E-1,3.305653483E-2
8.844351563E0,1.281071641E-2,2.672099173E-1,3.305653483E-2
8.849315625E0,2.234021435E-3,4.207988828E-2,4.485496320E-3
8.854278125E0,2.234021435E-3,4.207988828E-2,4.485496320E-3
8.859242188E0,2.164208330E-3,3.897320107E-2,3.403391922E-3
8.864204688E0,2.164208330E-3,3.897320107E-2,3.403391922E-3
8.869168750E0,2.251474652E-3,3.775146976E-2,2.426007763E-3
8.874131250E0,2.251474652E-3,3.775146976E-2,2.426007763E-3
8.879095313E0,1.832595677E-3,3.776892647E-2,1.535889693E-3
8.884057813E0,1.832595677E-3,3.776892647E-2,1.535889693E-3
8.889020313E0,1.012290944E-3,3.836233541E-2,7.155850180E-4
8.893984375E0,1.012290944E-3,3.836233541E-2,7.155850180E-4
8.898946875E0,3.141592606E-4,3.766420484E-2,-1.570796303E-4
8.903910938E0,3.141592606E-4,3.766420484E-2,-1.570796303E-4
8.908873438E0,-5.410520826E-4,3.504621238E-2,-8.901178953E-4
8.913835938E0,-5.410520826E-4,3.504621238E-2,-8.901178953E-4
8.918798438E0,-1.535889693E-3,3.021164984E-2,-1.640609466E-3
8.923762500E0,-1.535889693E-3,3.021164984E-2,-1.640609466E-3
8.928726563E0,-2.338741207E-3,2.659881860E-2,-2.129301662E-3
8.933689063E0,-2.338741207E-3,2.659881860E-2,-2.129301662E-3
8.938651563E0,-2.181661548E-3,2.263692021E-2,-2.687806962E-3
8.943615625E0,-2.181661548E-3,2.263692021E-2,-2.687806962E-3
8.948578125E0,-1.570796361E-3,2.153736353E-2,-2.844886621E-3
8.953540625E0,-1.570796361E-3,2.153736353E-2,-2.844886621E-3
8.958504688E0,-1.029744279E-3,1.998401992E-2,-2.757620299E-3
8.963467188E0,-1.029744279E-3,1.998401992E-2,-2.757620299E-3
8.968431250E0,-9.075712296E-4,1.872738265E-2,-2.495820867E-3
8.973393750E0,-9.075712296E-4,1.872738265E-2,-2.495820867E-3
8.978357813E0,-5.410520826E-4,1.755801216E-2,-2.356194425E-3
8.983320313E0,-5.410520826E-4,1.755801216E-2,-2.356194425E-3
8.988282813E0,-1.570796303E-4,1.609193534E-2,-2.373647876E-3
8.993246875E0,-1.570796303E-4,1.609193534E-2,-2.373647876E-3
8.998209375E0,-3.665191471E-4,1.537635084E-2,-2.199114766E-3
9.003171875E0,-3.665191471E-4,1.537635084E-2,-2.199114766E-3
9.008135938E0,-7.330382941E-4,1.457349956E-2,-2.094394993E-3
9.013100000E0,-7.330382941E-4,1.457349956E-2,-2.094394993E-3
9.018062500E0,-1.151917269E-3,1.673770696E-2,-1.937315450E-3
9.023025000E0,-1.151917269E-3,1.673770696E-2,-1.937315450E-3
9.027989063E0,-1.204277156E-3,1.748819835E-2,-1.832595677E-3
9.032951563E0,-1.204277156E-3,1.748819835E-2,-1.832595677E-3
9.037915625E0,-1.640609466E-3,2.258456126E-2,-1.308996929E-3
9.042878125E0,-1.640609466E-3,2.258456126E-2,-1.308996929E-3
9.047840625E0,-2.391101094E-3,2.769837528E-2,-6.981316837E-4
9.052804688E0,-2.391101094E-3,2.769837528E-2,-6.981316837E-4
9.057767188E0,-2.775073517E-3,3.310889751E-2,-6.981316983E-5
9.062731250E0,-2.775073517E-3,3.310889751E-2,-6.981316983E-5
9.067693750E0,-2.373647876E-3,3.536036983E-2,2.443460980E-4
9.072656250E0,-2.373647876E-3,3.536036983E-2,2.443460980E-4
9.077620313E0,-1.780235791E-3,3.583160788E-2,3.141592606E-4
9.082582813E0,-1.780235791E-3,3.583160788E-2,3.141592606E-4
9.087546875E0,-1.326450263E-3,3.754203022E-2,4.537856148E-4
9.092509375E0,-1.326450263E-3,3.754203022E-2,4.537856148E-4
9.097473438E0,-1.221730490E-3,3.448770568E-2,2.094395168E-4
9.102435938E0,-1.221730490E-3,3.448770568E-2,2.094395168E-4
9.107398438E0,-1.274090377E-3,3.033382259E-2,-1.047197584E-4
9.112362500E0,-1.274090377E-3,3.033382259E-2,-1.047197584E-4
9.117325000E0,-1.396263367E-3,2.720968239E-2,-3.316125658E-4
9.122289063E0,-1.396263367E-3,2.720968239E-2,-3.316125658E-4
9.127251563E0,-1.343903481E-3,2.452187613E-2,-6.632251316E-4
9.132215625E0,-1.343903481E-3,2.452187613E-2,-6.632251316E-4
9.137178125E0,-1.047197497E-3,2.096140385E-2,-1.466076588E-3
9.142142188E0,-1.047197497E-3,2.096140385E-2,-1.466076588E-3
9.147104688E0,-8.203047328E-4,1.649336144E-2,-2.513274085E-3
9.152067188E0,-8.203047328E-4,1.649336144E-2,-2.513274085E-3
9.157031250E0,-8.028514567E-4,1.392772701E-2,-3.281218931E-3
9.161993750E0,-8.028514567E-4,1.392772701E-2,-3.281218931E-3
9.166957813E0,-9.075712296E-4,1.113520097E-2,-4.084070213E-3
9.171920313E0,-9.075712296E-4,1.113520097E-2,-4.084070213E-3
9.176884375E0,-9.948377265E-4,7.993607782E-3,-4.799655639E-3
9.181846875E0,-9.948377265E-4,7.993607782E-3,-4.799655639E-3
9.186809375E0,-9.599310579E-4,4.852015525E-3,-5.480333697E-3
9.191773438E0,-9.599310579E-4,4.852015525E-3,-5.480333697E-3
9.196735938E0,-8.377580671E-4,2.635447076E-3,-5.340707488E-3
9.201698438E0,-8.377580671E-4,2.635447076E-3,-5.340707488E-3
9.206662500E0,-6.632251316E-4,1.780235791E-3,-5.044001620E-3
9.211625000E0,-6.632251316E-4,1.780235791E-3,-5.044001620E-3
9.216589063E0,-5.061454722E-4,2.757620299E-3,-4.590216093E-3
9.221551563E0,-5.061454722E-4,2.757620299E-3,-4.590216093E-3
9.226515625E0,-2.617993741E-4,6.579891313E-3,-4.188789986E-3
9.231478125E0,-2.617993741E-4,6.579891313E-3,-4.188789986E-3
9.236442188E0,0.000000000E0,9.930923581E-3,-3.508111695E-3
9.241404688E0,0.000000000E0,9.930923581E-3,-3.508111695E-3
9.246368750E0,4.188790335E-4,9.983283468E-3,-2.879793290E-3
9.251331250E0,4.188790335E-4,9.983283468E-3,-2.879793290E-3
9.256295313E0,7.504915702E-4,1.251401100E-2,-2.146754880E-3
9.261257813E0,7.504915702E-4,1.251401100E-2,-2.146754880E-3
9.266220313E0,6.457717973E-4,1.153662615E-2,-2.094394993E-3
9.271182813E0,6.457717973E-4,1.153662615E-2,-2.094394993E-3
9.276146875E0,2.443460980E-4,1.322959550E-2,-2.181661548E-3
9.281109375E0,2.443460980E-4,1.322959550E-2,-2.181661548E-3
9.286073438E0,1.745329246E-5,1.403244678E-2,-2.391101094E-3
9.291035938E0,1.745329246E-5,1.403244678E-2,-2.391101094E-3
9.296000000E0,3.490658492E-5,1.415462047E-2,-2.635447076E-3
9.300962500E0,3.490658492E-5,1.415462047E-2,-2.635447076E-3
9.305925000E0,-4.363323096E-4,1.207767799E-2,-3.036872949E-3
9.310890625E0,-4.363323096E-4,1.207767799E-2,-3.036872949E-3
9.315851563E0,-1.308996929E-3,1.017526910E-2,-3.176499158E-3
9.320815625E0,-1.308996929E-3,1.017526910E-2,-3.176499158E-3
9.325778125E0,-2.268928103E-3,1.206022501E-2,-3.036872949E-3
9.330742188E0,-2.268928103E-3,1.206022501E-2,-3.036872949E-3
9.335704688E0,-3.054326167E-3,1.270599663E-2,-3.124139272E-3
9.340667188E0,-3.054326167E-3,1.270599663E-2,-3.124139272E-3
9.345631250E0,-3.298672382E-3,1.326450240E-2,-3.351032268E-3
9.350593750E0,-3.298672382E-3,1.326450240E-2,-3.351032268E-3
9.355557813E0,-2.862340072E-3,1.150172018E-2,-4.049163777E-3
9.360520313E0,-2.862340072E-3,1.150172018E-2,-4.049163777E-3
9.365484375E0,-2.181661548E-3,8.779006079E-3,-4.939281847E-3
9.370446875E0,-2.181661548E-3,8.779006079E-3,-4.939281847E-3
9.375409375E0,-1.832595677E-3,2.426007763E-3,-6.300638430E-3
9.380373438E0,-1.832595677E-3,2.426007763E-3,-6.300638430E-3
9.385335938E0,-1.710422686E-3,-1.518436475E-3,-7.330382708E-3
9.390300000E0,-1.710422686E-3,-1.518436475E-3,-7.330382708E-3
9.395262500E0,-1.675516134E-3,-4.241149873E-3,-8.028514683E-3
9.400226563E0,-1.675516134E-3,-4.241149873E-3,-8.028514683E-3
9.405189063E0,-1.675516134E-3,-6.161012221E-3,-8.883725852E-3
9.410151563E0,-1.675516134E-3,-6.161012221E-3,-8.883725852E-3
9.415115625E0,-1.640609466E-3,-9.285151958E-3,-1.017526910E-2
9.420078125E0,-1.640609466E-3,-9.285151958E-3,-1.017526910E-2
9.425042188E0,-1.623156248E-3,-1.120501384E-2,-1.134464052E-2
9.430004688E0,-1.623156248E-3,-1.120501384E-2,-1.134464052E-2
9.434968750E0,-1.762782573E-3,-1.333431527E-2,-1.240929123E-2
9.439931250E0,-1.762782573E-3,-1.333431527E-2,-1.240929123E-2
9.444893750E0,-2.321287990E-3,-1.589994878E-2,-1.326450240E-2
9.449857813E0,-2.321287990E-3,-1.589994878E-2,-1.326450240E-2
9.454820313E0,-3.071779385E-3,-1.743583940E-2,-1.343903504E-2
9.459784375E0,-3.071779385E-3,-1.743583940E-2,-1.343903504E-2
9.464746875E0,-3.403391922E-3,-1.766273193E-2,-1.340412907E-2
9.469710938E0,-3.403391922E-3,-1.766273193E-2,-1.340412907E-2
9.474673438E0,-3.211405827E-3,-1.603957638E-2,-1.296779606E-2
9.479635938E0,-3.211405827E-3,-1.603957638E-2,-1.296779606E-2
9.484600000E0,-3.001966281E-3,-1.443387289E-2,-1.267109066E-2
9.489562500E0,-3.001966281E-3,-1.443387289E-2,-1.267109066E-2
9.494526563E0,-2.827433404E-3,-1.282817032E-2,-1.223475765E-2
9.499489063E0,-2.827433404E-3,-1.282817032E-2,-1.223475765E-2
9.504451563E0,-2.757620299E-3,-8.831365965E-3,-1.162389293E-2
9.509415625E0,-2.757620299E-3,-8.831365965E-3,-1.162389293E-2
9.514378125E0,-2.617993858E-3,-5.201081280E-3,-1.110029407E-2
9.519342188E0,-2.617993858E-3,-5.201081280E-3,-1.110029407E-2
9.524304688E0,-2.199114766E-3,-4.084070213E-3,-1.080358773E-2
9.529268750E0,-2.199114766E-3,-4.084070213E-3,-1.080358773E-2
9.534231250E0,-1.675516134E-3,-3.665191354E-3,-1.057669520E-2
9.539193750E0,-1.675516134E-3,-3.665191354E-3,-1.057669520E-2
9.544157813E0,-1.378810150E-3,-4.293509759E-3,-1.041961554E-2
9.549120313E0,-1.378810150E-3,-4.293509759E-3,-1.041961554E-2
9.554084375E0,-1.413716702E-3,-3.752457909E-3,-1.019272301E-2
9.559046875E0,-1.413716702E-3,-3.752457909E-3,-1.019272301E-2
9.564010938E0,-1.378810150E-3,-2.844886621E-3,-9.896016680E-3
9.568973438E0,-1.378810150E-3,-2.844886621E-3,-9.896016680E-3
9.573935938E0,-1.291543595E-3,-3.647738136E-3,-9.686577134E-3
9.578900000E0,-1.291543595E-3,-3.647738136E-3,-9.686577134E-3
9.583862500E0,-1.169370604E-3,-4.031710327E-3,-9.512044489E-3
9.588826563E0,-1.169370604E-3,-4.031710327E-3,-9.512044489E-3
9.593790625E0,-9.424777818E-4,-4.660028964E-3,-9.093165398E-3
9.598753125E0,-9.424777818E-4,-4.660028964E-3,-9.093165398E-3
9.603715625E0,-6.981316837E-4,-5.078908056E-3,-8.621926419E-3
9.608678125E0,-6.981316837E-4,-5.078908056E-3,-8.621926419E-3
9.613642188E0,-1.570796303E-4,-6.300638430E-3,-8.429939859E-3
9.618625000E0,-1.570796303E-4,-6.300638430E-3,-8.429939859E-3
9.623568750E0,8.552113432E-4,-5.916666240E-3,-8.011061698E-3
9.628531250E0,8.552113432E-4,-5.916666240E-3,-8.011061698E-3
9.633495313E0,2.111848444E-3,-6.422811653E-3,-7.941247895E-3
9.638457813E0,2.111848444E-3,-6.422811653E-3,-7.941247895E-3
9.643420313E0,2.879793290E-3,-8.150687441E-3,-8.011061698E-3
9.648384375E0,2.879793290E-3,-8.150687441E-3,-8.011061698E-3
9.653346875E0,3.106686054E-3,-9.128072299E-3,-8.098327555E-3
9.658310938E0,3.106686054E-3,-9.128072299E-3,-8.098327555E-3
9.663273438E0,3.298672382E-3,-1.026253588E-2,-8.080874570E-3
9.668235938E0,3.298672382E-3,-1.026253588E-2,-8.080874570E-3
9.673200000E0,3.385938704E-3,-1.206022501E-2,-8.133234456E-3
9.678162500E0,3.385938704E-3,-1.206022501E-2,-8.133234456E-3
9.683126563E0,3.106686054E-3,-1.303760987E-2,-8.150687441E-3
9.688089063E0,3.106686054E-3,-1.303760987E-2,-8.150687441E-3
9.693053125E0,2.949606394E-3,-1.349139493E-2,-8.063420653E-3
9.698015625E0,2.949606394E-3,-1.349139493E-2,-8.063420653E-3
9.702978125E0,2.879793290E-3,-1.357866172E-2,-7.906341925E-3
9.707942188E0,2.879793290E-3,-1.357866172E-2,-7.906341925E-3
9.712904688E0,2.897246508E-3,-1.319468953E-2,-7.627088577E-3
9.717868750E0,2.897246508E-3,-1.319468953E-2,-7.627088577E-3
9.722831250E0,2.897246508E-3,-1.251401100E-2,-7.208209950E-3
9.727795313E0,2.897246508E-3,-1.251401100E-2,-7.208209950E-3
9.732757813E0,2.914699726E-3,-1.108284108E-2,-6.946410518E-3
9.737720313E0,2.914699726E-3,-1.108284108E-2,-6.946410518E-3
9.742684375E0,2.932153177E-3,-9.896016680E-3,-6.440265104E-3
9.747646875E0,2.932153177E-3,-9.896016680E-3,-6.440265104E-3
9.752610938E0,3.036872949E-3,-4.293509759E-3,-5.323254038E-3
9.757573438E0,3.036872949E-3,-4.293509759E-3,-5.323254038E-3
9.762537500E0,3.769911127E-3,1.518436475E-3,-4.014257342E-3
9.767500000E0,3.769911127E-3,1.518436475E-3,-4.014257342E-3
9.772462500E0,5.410520826E-3,7.452555932E-3,-2.949606394E-3
9.777426563E0,5.410520826E-3,7.452555932E-3,-2.949606394E-3
9.782389063E0,6.771877408E-3,1.160643995E-2,-1.884955564E-3
9.787353125E0,6.771877408E-3,1.160643995E-2,-1.884955564E-3
9.792315625E0,7.871435024E-3,1.101302728E-2,-1.378810150E-3
9.797278125E0,7.871435024E-3,1.101302728E-2,-1.378810150E-3
9.802242188E0,8.587019518E-3,1.094321441E-2,-8.726646192E-4
9.807204688E0,8.587019518E-3,1.094321441E-2,-8.726646192E-4
9.812168750E0,9.023352526E-3,1.038470864E-2,-6.457717973E-4
9.817131250E0,9.023352526E-3,1.038470864E-2,-6.457717973E-4
9.822095313E0,8.325220086E-3,9.302604944E-3,-5.235987483E-4
9.827057813E0,8.325220086E-3,9.302604944E-3,-5.235987483E-4
9.832020313E0,7.819075137E-3,6.946410518E-3,-5.585053586E-4
9.836984375E0,7.819075137E-3,6.946410518E-3,-5.585053586E-4
9.841946875E0,7.452555932E-3,5.759586580E-3,-3.665191471E-4
9.846910938E0,7.452555932E-3,5.759586580E-3,-3.665191471E-4
9.851873438E0,7.225662936E-3,5.061454605E-3,-1.396263397E-4
