"Time (s)","Linear Acceleration x (m/s^2)","Linear Acceleration y (m/s^2)","Linear Acceleration z (m/s^2)"
0.000000000E0,-1.570999920E-1,5.904999971E-1,2.108199835E0
9.925000000E-3,-3.210999966E-1,6.704999804E-1,1.331399918E0
1.985156300E-2,-2.859999835E-1,6.830999851E-1,3.623999953E-1
2.977812500E-2,-1.053999960E-1,7.570999861E-1,-2.536000013E-1
3.970468800E-2,2.996999919E-1,5.550000072E-1,-6.870999932E-1
4.963125000E-2,6.603999734E-1,3.341999948E-1,-7.981999516E-1
5.955781300E-2,5.683999658E-1,1.885999888E-1,-8.416000009E-1
6.948437500E-2,3.208000064E-1,6.140000001E-2,-7.257999778E-1
7.941093800E-2,4.259999841E-2,2.859999985E-2,-3.739999831E-1
8.933593800E-2,-2.606000006E-1,-8.100000210E-3,-2.082999945E-1
9.926250000E-2,-3.553999960E-1,-3.309999779E-2,2.447999865E-1
1.091890630E-1,-3.179999888E-1,9.099999443E-3,6.599999666E-1
1.191156250E-1,-1.941999942E-1,4.069999978E-2,7.412999868E-1
1.290421880E-1,-2.012999952E-1,1.493999958E-1,5.842999816E-1
1.389687500E-1,-1.086999997E-1,2.351999879E-1,4.118999839E-1
1.488937500E-1,-6.469999999E-2,2.866999805E-1,3.355000019E-1
1.588218750E-1,-1.195999980E-1,3.655000031E-1,1.384999901E-1
1.687468750E-1,9.439999610E-2,4.763999879E-1,1.399999950E-2
1.786734380E-1,8.240000159E-2,4.375999868E-1,2.669999935E-2
1.886000000E-1,6.939999759E-2,4.654999971E-1,-9.200000204E-3
1.985265630E-1,1.085999981E-1,5.090999603E-1,-2.190000005E-2
2.084515630E-1,1.371999979E-1,5.008000135E-1,-1.507000029E-1
2.183781250E-1,1.228999943E-1,4.053999782E-1,-2.849999964E-1
2.283046880E-1,1.842999905E-1,2.900999784E-1,-1.944999993E-1
2.382312500E-1,2.228999883E-1,2.259999961E-1,1.099999994E-3
2.481578130E-1,2.117999941E-1,1.827999949E-1,-5.200000014E-3
2.580843750E-1,6.309999526E-2,1.911999881E-1,2.929999866E-2
2.680109380E-1,-1.008000001E-1,2.203999907E-1,-6.579999626E-2
2.779359380E-1,-3.057999909E-1,2.117999941E-1,7.159999758E-2
2.878625000E-1,-2.766999900E-1,3.233000040E-1,3.307999969E-1
2.977890630E-1,-2.435999960E-1,3.888999820E-1,2.938999832E-1
3.077156250E-1,-1.410000026E-1,4.573999941E-1,3.299999833E-1
3.176437500E-1,-9.899999946E-3,4.023999870E-1,3.191999793E-1
3.275687500E-1,1.131999940E-1,5.115000010E-1,2.674999833E-1
3.374953130E-1,4.189999774E-2,4.878000021E-1,1.322000027E-1
3.474218750E-1,-2.599999867E-2,4.491999745E-1,-1.175999939E-1
3.573484380E-1,-1.289999951E-2,5.033000112E-1,-2.078000009E-1
3.672734380E-1,-3.429999948E-2,4.960999787E-1,-1.731999964E-1
3.772015630E-1,-4.989999905E-2,3.819999993E-1,-7.779999822E-2
3.871265630E-1,-9.389999509E-2,4.465000033E-1,2.029999904E-2
3.970531250E-1,-1.020999998E-1,3.762999773E-1,-3.599999938E-3
4.069796880E-1,2.199999988E-2,3.761999905E-1,2.199999988E-2
4.169062500E-1,2.699999884E-2,3.473999798E-1,3.610000014E-2
4.268328130E-1,-4.769999906E-2,3.471999764E-1,-2.939999849E-2
4.367578130E-1,-4.659999907E-2,3.441999853E-1,-1.385999918E-1
4.466859380E-1,-2.769999951E-2,3.093999922E-1,-2.915999889E-1
4.566109380E-1,-3.909999877E-2,2.771999836E-1,-1.498999894E-1
4.665375000E-1,1.049999986E-2,2.443999946E-1,-1.439999938E-1
4.764640630E-1,7.499999553E-2,2.409999967E-1,-9.300000034E-3
4.863906250E-1,1.616999954E-1,2.377999872E-1,3.419999778E-2
4.963171880E-1,1.317999959E-1,2.673999965E-1,2.672999799E-1
5.062437500E-1,1.075999960E-1,3.088999987E-1,4.393000007E-1
5.161687500E-1,5.169999972E-2,3.141999841E-1,3.262999952E-1
5.260953130E-1,3.669999912E-2,3.601999879E-1,2.159999907E-1
5.360218750E-1,-2.829999849E-2,3.568999767E-1,-2.809999883E-2
5.459468750E-1,-1.252000034E-1,3.193999827E-1,-1.132999957E-1
5.558734380E-1,-1.841000021E-1,3.771999776E-1,-3.509999812E-2
5.658015630E-1,-1.193000004E-1,3.764999807E-1,2.929999866E-2
5.757265630E-1,-9.989999980E-2,3.757999837E-1,8.399999700E-3
5.856531250E-1,-4.900000058E-3,3.179000020E-1,1.549999975E-2
5.955796880E-1,5.590000004E-2,2.994000018E-1,4.919999838E-2
6.055062500E-1,-1.999999862E-3,3.184999824E-1,3.000000026E-3
6.154328130E-1,2.489999868E-2,2.480999976E-1,-1.899999939E-2
6.253578130E-1,6.009999663E-2,2.660999894E-1,-5.099999718E-3
6.352843750E-1,-2.539999969E-2,2.542999983E-1,-8.720000088E-2
6.452109380E-1,6.549999863E-2,2.612999976E-1,-4.360000044E-2
6.551375000E-1,-7.999999449E-3,2.483999878E-1,-9.070000052E-2
6.650640630E-1,-1.569999941E-2,2.556000054E-1,-7.989999652E-2
6.749890630E-1,-4.939999804E-2,2.540000081E-1,-2.219999954E-2
6.849421880E-1,-4.129999876E-2,2.232999951E-1,-3.680000082E-2
6.948421880E-1,-2.180000022E-2,1.931999922E-1,-1.850000024E-2
7.047687500E-1,-3.009999916E-2,2.712999880E-1,-2.249999903E-2
7.146953130E-1,8.399999887E-2,2.414999902E-1,3.419999778E-2
7.246218750E-1,-1.059999969E-2,3.412999809E-1,2.185999900E-1
7.345484380E-1,4.809999838E-2,3.050999939E-1,2.488999963E-1
7.444734380E-1,1.862999946E-1,3.186999857E-1,2.669000030E-1
7.544000000E-1,2.435999960E-1,3.621999919E-1,1.494999975E-1
7.643281250E-1,1.155999973E-1,3.294999897E-1,1.366000026E-1
7.742531250E-1,6.509999931E-2,3.208000064E-1,-3.969999775E-2
7.841796880E-1,-8.479999751E-2,4.443999827E-1,-2.198999971E-1
7.941062500E-1,-1.739999950E-1,3.136999905E-1,-6.099999696E-2
8.040328130E-1,-2.041999996E-1,3.407000005E-1,-4.919999838E-2
8.139593750E-1,-7.849999517E-2,3.592999876E-1,1.503999978E-1
8.238843750E-1,-1.150000002E-2,3.017999828E-1,1.349000037E-1
8.338109380E-1,-6.570000201E-2,3.364000022E-1,1.081999987E-1
8.437375000E-1,-2.129999921E-2,3.497999907E-1,1.083000004E-1
8.536640630E-1,-5.839999765E-2,2.861999869E-1,1.174999997E-1
8.635906250E-1,2.169999853E-2,3.852999806E-1,3.769999743E-2
8.735171880E-1,8.349999785E-2,1.975999922E-1,-9.619999677E-2
8.834421880E-1,2.078000009E-1,1.930999905E-1,-1.491999924E-1
8.933687500E-1,1.906999946E-1,1.764999926E-1,-2.169999927E-1
9.032953130E-1,7.679999620E-2,9.989999980E-2,-2.124999911E-1
9.132218750E-1,1.909999922E-2,1.441999972E-1,-5.199999735E-2
9.231484380E-1,-3.130000085E-2,1.801999956E-1,-4.509999976E-2
9.330750000E-1,-4.129999876E-2,1.398999989E-1,6.399999559E-2
9.430015630E-1,1.599999960E-3,1.301999986E-1,3.429999948E-2
9.529265630E-1,1.339999959E-2,1.002999991E-1,-1.030000001E-1
9.628531250E-1,-7.319999486E-2,1.503999978E-1,1.209999993E-1
9.727796880E-1,-2.210000008E-1,1.250000000E-1,2.233999968E-1
9.827062500E-1,-1.904999912E-1,1.384999901E-1,1.850000024E-1
9.926328130E-1,-1.008999944E-1,8.289999515E-2,3.579999879E-2
1.002557813E0,1.589999907E-2,1.345999986E-1,-1.810999960E-1
1.012484375E0,6.749999523E-2,2.479999885E-2,-2.109999955E-1
1.022410938E0,5.680000037E-2,-7.299999706E-3,1.030000020E-2
1.032337500E0,-8.599999361E-3,-6.780000031E-2,1.174999997E-1
1.042264063E0,3.799999831E-3,-4.899999872E-2,7.469999790E-2
1.052190625E0,4.789999872E-2,-8.609999716E-2,6.430000067E-2
1.062117188E0,3.049999848E-2,-6.480000168E-2,-8.190000057E-2
1.072042188E0,1.599999960E-3,-9.629999846E-2,-1.673000008E-1
1.081968750E0,3.879999742E-2,-8.109999448E-2,-1.788999885E-1
1.091895313E0,6.269999593E-2,-1.837999970E-1,-2.247999907E-1
1.101821875E0,8.039999753E-2,-1.982999891E-1,-1.990000010E-1
1.111748438E0,3.339999914E-2,-1.720999926E-1,-1.648999900E-1
1.121673438E0,-5.899999756E-3,-1.736999899E-1,-5.639999732E-2
1.131601563E0,-6.839999557E-2,-1.645999998E-1,-4.900000058E-3
1.141526563E0,-1.349999942E-2,-1.155999973E-1,4.239999875E-2
1.151453125E0,-6.989999861E-2,-1.840000004E-1,-3.570000082E-2
1.161379688E0,-9.129999578E-2,-7.499999553E-2,7.199999690E-2
1.171306250E0,-1.599999964E-1,-1.420000009E-2,9.969999641E-2
1.181232813E0,-1.079999954E-1,6.700000167E-2,2.276999950E-1
1.191159375E0,-1.899999916E-3,1.788000017E-1,2.784999907E-1
1.201084375E0,7.919999957E-2,2.613999844E-1,1.532000005E-1
1.211012500E0,1.171999946E-1,4.520999789E-1,2.210000008E-1
1.220937500E0,7.209999859E-2,5.066999793E-1,2.381999940E-1
1.230864063E0,6.960000098E-2,5.500000119E-1,1.831000000E-1
1.240789063E0,-5.499999970E-2,6.218000054E-1,1.272999942E-1
1.250717188E0,-4.030000046E-2,5.647000074E-1,-6.089999899E-2
1.260642188E0,-4.930000007E-2,6.031999588E-1,-6.920000166E-2
1.270570313E0,-3.819999844E-2,5.514000058E-1,-5.130000040E-2
1.280495313E0,-7.349999994E-2,5.485999584E-1,-4.259999841E-2
1.290421875E0,1.909999922E-2,5.952000022E-1,5.879999697E-2
1.300348438E0,9.699999355E-3,4.756999910E-1,-5.169999972E-2
1.310275000E0,-3.339999914E-2,5.419999957E-1,-9.179999679E-2
1.320200000E0,-2.719999850E-2,4.318999946E-1,-8.169999719E-2
1.330126563E0,-2.300000051E-3,4.201000035E-1,-3.359999880E-2
1.340053125E0,5.819999799E-2,3.294000030E-1,-1.199999941E-3
1.349979688E0,8.299999870E-3,2.497999966E-1,-8.299999870E-3
1.359906250E0,3.019999899E-2,1.708000004E-1,5.599999800E-3
1.369831250E0,-2.709999867E-2,1.410999894E-1,-3.000000026E-3
1.379757813E0,4.339999706E-2,4.399999976E-2,1.271999925E-1
1.389684375E0,3.099999949E-2,-1.449999958E-2,4.100000020E-3
1.399612500E0,3.000000026E-3,-1.136999950E-1,-1.330000013E-1
1.409539063E0,2.559999935E-2,-8.599999547E-2,-1.493999958E-1
1.419464063E0,-6.179999933E-2,-8.630000055E-2,-1.609999873E-2
1.429390625E0,-4.380000010E-2,-2.769999951E-2,1.244999990E-1
1.439315625E0,-5.909999833E-2,-6.639999896E-2,7.499999553E-2
1.449242188E0,-3.949999809E-2,-7.499999553E-2,-1.869999990E-2
1.459168750E0,-2.979999967E-2,-4.470000044E-2,-1.300999969E-1
1.469095313E0,-3.439999744E-2,6.350000203E-2,-1.299999934E-2
1.479021875E0,7.509999722E-2,1.299999934E-2,-4.799999762E-3
1.488946875E0,6.650000066E-2,7.129999995E-2,8.449999988E-2
1.498873438E0,1.185999960E-1,1.198999956E-1,5.480000004E-2
1.508800000E0,7.090000063E-2,1.894999892E-1,4.749999940E-2
1.518726563E0,2.159999870E-2,2.578999996E-1,1.030000020E-2
1.528654688E0,-6.549999863E-2,3.283999860E-1,1.102999970E-1
1.538581250E0,-7.029999793E-2,3.287000060E-1,1.889999956E-2
1.548506250E0,-8.769999444E-2,3.594999909E-1,5.139999837E-2
1.558431250E0,-2.639999986E-2,3.896999955E-1,2.449999936E-2
1.568357813E0,-6.199999712E-3,4.289000034E-1,-8.379999548E-2
1.578285938E0,-2.679999918E-2,4.755999744E-1,-1.039000005E-1
1.588210938E0,-2.829999849E-2,5.730000138E-1,-8.100000210E-3
1.598137500E0,-5.319999903E-2,5.830000043E-1,1.371999979E-1
1.608064063E0,-1.759999990E-2,6.532999873E-1,2.434999943E-1
1.617990625E0,-3.529999778E-2,6.839999557E-1,3.940000013E-2
1.627915625E0,-5.289999768E-2,6.857999563E-1,-7.400000002E-3
1.637842188E0,-3.460000083E-2,6.976000071E-1,5.089999735E-2
1.647768750E0,-6.379999965E-2,7.760999799E-1,2.529999986E-2
1.657695313E0,-5.599999800E-2,7.752999663E-1,7.789999992E-2
1.667621875E0,-3.570000082E-2,7.488999963E-1,2.175999880E-1
1.677548438E0,-3.869999945E-2,7.529000044E-1,2.074999958E-1
1.687475000E0,-3.009999916E-2,7.838000059E-1,5.309999734E-2
1.697400000E0,2.730000019E-2,8.137999773E-1,-9.999999776E-3
1.707326563E0,6.799999624E-3,7.466999888E-1,5.229999870E-2
1.717253125E0,6.199999899E-2,6.965999603E-1,7.649999857E-2
1.727179688E0,1.006999984E-1,7.030999660E-1,1.030000020E-2
1.737106250E0,1.728999913E-1,6.437999606E-1,1.035999954E-1
1.747032813E0,1.683000028E-1,5.661999583E-1,7.840000093E-2
1.756959375E0,6.269999593E-2,4.483999908E-1,5.289999768E-2
1.766884375E0,3.629999980E-2,4.073999822E-1,-5.260000005E-2
1.776810938E0,-7.469999790E-2,2.101999968E-1,-1.152999997E-1
1.786737500E0,-1.246999949E-1,2.471999973E-1,-5.359999835E-2
1.796664063E0,-1.239999980E-1,1.572999954E-1,-1.289999951E-2
1.806590625E0,-1.067999974E-1,9.709999710E-2,7.400000002E-3
1.816517188E0,7.299999706E-3,2.899999917E-2,3.629999980E-2
1.826443750E0,-7.899999619E-3,9.499999695E-3,-5.629999936E-2
1.836368750E0,-3.049999848E-2,-2.919999883E-2,1.199999941E-3
1.846295313E0,-1.018999964E-1,-1.076999977E-1,-3.720000014E-2
1.856221875E0,-8.119999617E-2,-1.169999987E-1,1.119999960E-2
1.866148438E0,-8.439999819E-2,-5.779999867E-2,-2.099999972E-2
1.876075000E0,1.640000008E-2,-1.153999940E-1,-8.999999845E-4
1.886001563E0,2.379999869E-2,-2.056999952E-1,-1.711999923E-1
1.895926563E0,2.879999951E-2,-2.770999968E-1,-1.977999955E-1
1.905853125E0,3.999999899E-4,-2.505999804E-1,-1.507999897E-1
1.915779688E0,2.319999970E-2,-2.920999825E-1,-4.779999703E-2
1.925706250E0,5.299999937E-2,-2.158999890E-1,-1.179999951E-2
1.935632813E0,7.189999521E-2,-1.683000028E-1,-5.399999768E-2
1.945559375E0,-4.079999775E-2,-9.959999472E-2,-1.169999968E-2
1.955484375E0,-3.199999919E-3,-2.070000023E-2,8.129999787E-2
1.965410938E0,8.599999361E-3,8.700000122E-3,6.149999797E-2
1.975337500E0,1.689999923E-2,5.799999833E-2,3.189999983E-2
1.985264063E0,5.460000038E-2,1.070000008E-1,-8.590000123E-2
1.995190625E0,5.359999835E-2,1.074999943E-1,1.018999964E-1
2.005117188E0,-6.099999696E-2,1.578999907E-1,1.662999988E-1
2.015043750E0,8.799999952E-3,1.694999933E-1,1.779999882E-1
2.024970313E0,2.300000051E-3,2.099999934E-1,4.059999809E-2
2.034895313E0,-4.349999875E-2,2.215999961E-1,-1.066999957E-1
2.044821875E0,-3.309999779E-2,3.005999923E-1,-2.039999887E-2
2.054748438E0,1.138999984E-1,3.588999808E-1,9.939999878E-2
2.064675000E0,3.199999919E-3,3.774999976E-1,4.010000080E-2
2.074601563E0,-1.519999932E-2,3.867000043E-1,-2.520000003E-2
2.084528125E0,-3.359999880E-2,4.560999870E-1,1.310000010E-2
2.094453125E0,3.509999812E-2,5.751999617E-1,1.608999968E-1
2.104379688E0,4.959999770E-2,5.957999825E-1,1.544999927E-1
2.114306250E0,2.300000051E-3,5.473999977E-1,4.329999909E-2
2.124232813E0,-8.899999410E-2,5.993999839E-1,1.034999937E-1
2.134159375E0,-9.160000086E-2,5.051999688E-1,1.447999924E-1
2.144085938E0,-2.599999867E-2,5.952000022E-1,1.149000004E-1
2.154010938E0,-3.089999966E-2,5.263999701E-1,-3.179999813E-2
2.163937500E0,-5.799999926E-3,4.571999907E-1,-1.359999925E-1
2.173864063E0,6.999999750E-3,4.545999765E-1,-1.184999943E-1
2.183790625E0,-4.930000007E-2,4.025999904E-1,-3.019999899E-2
2.193717188E0,-4.479999840E-2,3.432999849E-1,1.504999995E-1
2.203642188E0,-1.077999994E-1,3.560999930E-1,2.307000011E-1
2.213570313E0,-2.549999952E-2,3.509999812E-1,2.028999925E-1
2.223495313E0,4.759999737E-2,3.252999783E-1,4.429999739E-2
2.233421875E0,1.122999936E-1,2.263999879E-1,-1.977999955E-1
2.243348438E0,7.849999517E-2,2.314999998E-1,-2.485999912E-1
2.253275000E0,2.199999988E-2,1.090999991E-1,-9.099999815E-2
2.263201563E0,7.710000128E-2,6.439999491E-2,-7.069999725E-2
2.273128125E0,4.710000008E-2,6.159999967E-2,4.360000044E-2
2.283053125E0,4.979999736E-2,2.799999900E-3,5.729999766E-2
2.292979688E0,7.299999706E-3,-3.489999846E-2,3.729999810E-2
2.302906250E0,-2.539999969E-2,-1.237999946E-1,-5.130000040E-2
2.312832813E0,-3.480000049E-2,-1.237000003E-1,-6.099999696E-2
2.322759375E0,-1.026999950E-1,-1.326999962E-1,3.879999742E-2
2.332684375E0,-5.279999971E-2,-1.801999956E-1,9.749999642E-2
2.342610938E0,2.609999850E-2,-1.490999907E-1,1.194999963E-1
2.352539063E0,7.119999826E-2,-1.484999955E-1,-5.939999968E-2
2.362464063E0,8.679999411E-2,-1.488000005E-1,-1.361999959E-1
2.372390625E0,4.519999772E-2,-1.332999915E-1,-2.766000032E-1
2.382317188E0,3.280000016E-2,-8.760000020E-2,-1.159999967E-1
2.392242188E0,3.049999848E-2,-1.484999955E-1,6.499999762E-2
2.402168750E0,-2.819999866E-2,-1.885000020E-1,3.559999913E-2
2.412095313E0,-6.899999827E-2,-1.889999956E-1,-1.529999916E-2
2.422023438E0,-1.399999950E-2,-1.494999975E-1,-1.096000001E-1
2.431950000E0,-1.131999940E-1,-1.881999969E-1,-4.169999808E-2
2.441875000E0,-8.679999411E-2,-1.779999882E-1,5.619999766E-2
2.451801563E0,-8.419999480E-2,-1.568999887E-1,1.268000007E-1
2.461728125E0,-9.999999747E-5,-9.589999914E-2,1.425999999E-1
2.471653125E0,8.769999444E-2,-6.350000203E-2,8.179999888E-2
2.481579688E0,1.550000012E-1,5.099999718E-3,-6.560000032E-2
2.491506250E0,1.579999924E-1,-5.480000004E-2,-8.399999887E-2
2.501432813E0,6.329999864E-2,-5.700000003E-2,-1.123999953E-1
2.511359375E0,2.190000005E-2,-7.840000093E-2,-3.170000017E-2
2.521285938E0,-2.730000019E-2,2.840000018E-2,4.749999940E-2
2.531210938E0,-3.319999948E-2,4.939999804E-2,1.439999938E-1
2.541137500E0,-1.750000007E-2,0.000000000E0,-6.319999695E-2
2.551064063E0,-1.769999973E-2,5.020000041E-2,1.219999976E-2
2.560990625E0,7.499999832E-3,8.119999617E-2,8.649999648E-2
2.570917188E0,-4.999999655E-4,1.532000005E-1,2.216999978E-1
2.580843750E0,2.269999869E-2,1.946999878E-1,2.099999934E-1
2.590768750E0,2.459999919E-2,1.387999952E-1,-2.290000021E-2
2.600695313E0,4.629999772E-2,1.867999882E-1,-2.234999985E-1
2.610621875E0,2.489999868E-2,1.446999907E-1,-2.275999933E-1
2.620548438E0,-2.789999917E-2,1.507999897E-1,-7.400000095E-2
2.630475000E0,-8.109999448E-2,1.783999950E-1,1.310999990E-1
2.640401563E0,-1.503999978E-1,1.695999950E-1,2.043000013E-1
2.650326563E0,-3.319999948E-2,1.722999960E-1,9.919999540E-2
2.660253125E0,3.299999982E-2,1.656000018E-1,2.009999938E-2
2.670179688E0,-6.599999964E-3,1.871999949E-1,-2.789999917E-2
2.680106250E0,6.799999624E-3,2.170999944E-1,2.359999903E-2
2.690032813E0,5.299999844E-3,1.682000011E-1,9.609999508E-2
2.699959375E0,9.629999846E-2,6.129999831E-2,8.519999683E-2
2.709884375E0,8.709999919E-2,-1.719999872E-2,-5.249999836E-2
2.719810938E0,-6.300000008E-3,-1.076999977E-1,-2.155999988E-1
2.729737500E0,-6.659999490E-2,-1.010999978E-1,-2.020999938E-1
2.739664063E0,-1.424999982E-1,-1.241999939E-1,-1.247999966E-1
2.749590625E0,-6.539999694E-2,-9.679999948E-2,2.510000020E-2
2.759517188E0,-9.499999695E-3,-1.952999979E-1,5.719999969E-2
2.769443750E0,8.859999478E-2,-1.656999886E-1,-6.000000052E-3
2.779368750E0,3.790000081E-2,-2.126999944E-1,1.061000004E-1
2.789295313E0,8.639999479E-2,-1.819999963E-1,4.800000042E-2
2.799221875E0,7.799999788E-3,-1.894000024E-1,1.384000033E-1
2.809148438E0,-7.840000093E-2,-1.686999947E-1,1.099999994E-3
2.819075000E0,-2.520000003E-2,-1.568999887E-1,-3.849999979E-2
2.829001563E0,-1.329999976E-2,-2.349999994E-1,-1.339999959E-2
2.838928125E0,6.129999831E-2,-1.855999976E-1,-2.929999866E-2
2.848854688E0,4.729999974E-2,-1.273999959E-1,4.010000080E-2
2.858779688E0,2.529999986E-2,-1.570999920E-1,-2.829999849E-2
2.868706250E0,-2.759999968E-2,-1.380999982E-1,-6.920000166E-2
2.878632813E0,-3.759999946E-2,-1.582999974E-1,-3.859999776E-2
2.888559375E0,3.109999932E-2,-2.383999974E-1,-1.094999984E-1
2.898485938E0,-4.089999944E-2,-2.122000009E-1,-1.642999947E-1
2.908412500E0,2.969999984E-2,-1.953999996E-1,-1.536999941E-1
2.918337500E0,-3.240000084E-2,-3.051999807E-1,-9.730000049E-2
2.928264063E0,3.000000026E-3,-2.777000070E-1,-4.589999840E-2
2.938190625E0,-2.399999881E-3,-2.395000011E-1,-3.709999844E-2
2.948117188E0,-1.429999992E-2,-1.999999881E-1,7.840000093E-2
2.958043750E0,-7.249999791E-2,-1.504999995E-1,-2.899999917E-2
2.967970313E0,-6.529999524E-2,-4.219999909E-2,5.799999926E-3
2.977895313E0,-4.039999843E-2,-1.129999943E-2,1.032999977E-1
2.987821875E0,3.399999812E-3,5.059999973E-2,2.088999897E-1
2.997748438E0,7.059999555E-2,1.213999987E-1,1.802999973E-1
3.007675000E0,1.239999942E-2,1.445999891E-1,1.345999986E-1
3.017601563E0,2.539999969E-2,1.771000028E-1,2.779999934E-2
3.027528125E0,4.839999974E-2,2.186999917E-1,5.089999735E-2
3.037454688E0,-4.219999909E-2,2.110999972E-1,1.261999905E-1
3.047379688E0,3.219999745E-2,1.635999978E-1,6.439999491E-2
3.057306250E0,-1.249999925E-2,9.479999542E-2,-3.249999881E-2
3.067232813E0,5.109999701E-2,-4.419999942E-2,-1.773999929E-1
3.077159375E0,8.529999852E-2,-2.799999900E-2,-1.970999986E-1
3.087085938E0,1.349999942E-2,-9.119999409E-2,-1.109999940E-1
3.097012500E0,2.190000005E-2,-8.399999887E-2,3.899999894E-3
3.106939063E0,2.399999881E-3,-6.639999896E-2,4.999999655E-4
3.116864063E0,-3.269999847E-2,-1.059999987E-1,-1.939999871E-2
3.126790625E0,-1.109999977E-2,1.329999976E-2,9.459999949E-2
3.136718750E0,-2.479999885E-2,-1.020999998E-1,1.040999964E-1
3.146643750E0,5.549999699E-2,-9.369999915E-2,-1.173999980E-1
3.156570313E0,2.429999970E-2,-1.735999882E-1,-1.576000005E-1
3.166496875E0,3.790000081E-2,-1.445000023E-1,-5.599999800E-2
3.176423438E0,-8.500000089E-2,-2.047999948E-1,-2.439999953E-2
3.186348438E0,-7.499999553E-2,-1.270999908E-1,1.128999963E-1
3.196275000E0,-4.699999839E-2,-1.744999886E-1,7.449999452E-2
3.206201563E0,5.299999937E-2,-1.922999918E-1,9.099999443E-3
3.216128125E0,-1.689999923E-2,-1.815999895E-1,-3.059999831E-2
3.226054688E0,6.199999712E-3,-1.321000010E-1,-3.199999779E-2
3.235981250E0,1.569999941E-2,-5.429999903E-2,-1.150000002E-2
3.245907813E0,2.109999955E-2,-8.389999717E-2,3.629999980E-2
3.255832813E0,-3.570000082E-2,-7.349999994E-2,2.190000005E-2
3.265759375E0,5.099999718E-3,-1.212999970E-1,6.549999863E-2
3.275685938E0,2.630000003E-2,-3.170000017E-2,5.859999731E-2
3.285612500E0,8.489999920E-2,8.899999782E-3,4.939999804E-2
3.295539063E0,6.920000166E-2,-1.089999974E-1,-6.459999830E-2
3.305464063E0,-1.709999889E-2,-8.020000160E-2,-8.630000055E-2
3.315390625E0,-1.599999960E-3,-3.269999847E-2,-7.149999589E-2
3.325317188E0,2.950000018E-2,4.459999874E-2,3.799999831E-3
3.335243750E0,1.179999951E-2,7.209999859E-2,-3.849999979E-2
3.345170313E0,1.359999925E-2,5.119999871E-2,-7.209999859E-2
3.355096875E0,1.799999969E-3,5.079999939E-2,-6.099999882E-3
3.365023438E0,1.939999871E-2,1.009999961E-1,1.169999987E-1
3.374948438E0,2.529999986E-2,6.260000169E-2,1.114000008E-1
3.384875000E0,-2.950000018E-2,1.325999945E-1,5.739999935E-2
3.394801563E0,-4.930000007E-2,1.146999970E-1,-2.199999988E-3
3.404728125E0,-5.539999902E-2,1.347000003E-1,-7.580000162E-2
3.414654688E0,-6.749999523E-2,1.527999938E-1,-6.780000031E-2
3.424581250E0,1.630000025E-2,2.313999981E-1,8.889999986E-2
3.434507813E0,5.939999968E-2,1.732999980E-1,1.052999943E-1
3.444432813E0,-7.299999706E-3,2.127999961E-1,3.199999779E-2
3.454359375E0,-8.039999753E-2,2.247999907E-1,8.489999920E-2
3.464285938E0,-1.045999974E-1,3.166999817E-1,1.098999977E-1
3.474212500E0,-3.659999743E-2,2.884999812E-1,4.629999772E-2
3.484139063E0,5.469999835E-2,3.382000029E-1,3.889999911E-2
3.494065625E0,9.399999678E-2,3.097999990E-1,-6.300000008E-3
3.503992188E0,4.349999875E-2,2.989999950E-1,-4.499999806E-2
3.513917188E0,7.019999623E-2,3.842999935E-1,-6.700000167E-2
3.523843750E0,-1.740000024E-2,3.631999791E-1,-1.579999924E-2
3.533770313E0,3.409999982E-2,3.136999905E-1,6.799999624E-2
3.543696875E0,-2.879999951E-2,3.625999987E-1,6.079999730E-2
3.553623438E0,-6.059999764E-2,4.711999893E-1,7.919999957E-2
3.563550000E0,-7.169999927E-2,4.630999863E-1,5.570000038E-2
3.573476563E0,-4.099999741E-2,4.869999886E-1,2.210000008E-1
3.583401563E0,1.449999958E-2,5.697000027E-1,2.255999893E-1
3.593328125E0,5.759999901E-2,5.622999668E-1,5.769999698E-2
3.603254688E0,9.999999404E-2,5.733000040E-1,-8.299999870E-3
3.613181250E0,1.539999992E-1,5.358999968E-1,5.899999756E-3
3.623107813E0,4.030000046E-2,6.520000100E-1,2.489999868E-2
3.633032813E0,2.049999870E-2,6.208999753E-1,8.519999683E-2
3.642959375E0,-4.749999940E-2,5.925999880E-1,1.119999960E-1
3.652885938E0,-1.153999940E-1,5.246999860E-1,3.339999914E-2
3.662812500E0,-1.223999932E-1,5.044000149E-1,-8.700000122E-3
3.672739063E0,-1.169999987E-1,4.556999803E-1,1.939999871E-2
3.682665625E0,-3.039999865E-2,4.068000019E-1,4.120000079E-2
3.692592188E0,-5.150000006E-2,4.457999766E-1,6.790000200E-2
3.702517188E0,2.479999885E-2,4.452999830E-1,7.299999706E-3
3.712443750E0,1.241999939E-1,4.642999768E-1,-9.099999443E-3
3.722370313E0,1.123999953E-1,4.328999817E-1,-4.779999703E-2
3.732296875E0,6.459999830E-2,4.213999808E-1,4.999999655E-4
3.742221875E0,3.309999779E-2,4.587000012E-1,1.519999932E-2
3.752148438E0,-1.869999990E-2,4.096999764E-1,7.360000163E-2
3.762075000E0,-4.059999809E-2,4.394999743E-1,7.759999484E-2
3.772001563E0,-3.700000001E-3,4.616999924E-1,1.326999962E-1
3.781928125E0,2.379999869E-2,5.411999822E-1,5.089999735E-2
3.791853125E0,7.930000126E-2,3.950999975E-1,9.200000204E-3
3.801781250E0,2.879999951E-2,4.050999880E-1,1.699999906E-2
3.811707813E0,-2.769999951E-2,4.240999818E-1,-1.489999983E-2
3.821634375E0,-2.950000018E-2,4.609999955E-1,-1.449999958E-2
3.831560938E0,-4.969999939E-2,4.012999833E-1,1.599999890E-2
3.841485938E0,-5.089999735E-2,3.906999826E-1,1.559999958E-2
3.851412500E0,-9.359999746E-2,4.016999900E-1,1.378999949E-1
3.861337500E0,3.570000082E-2,3.449999988E-1,1.301999986E-1
3.871264063E0,1.089999974E-1,3.260000050E-1,-1.480000000E-2
3.881190625E0,8.029999584E-2,3.457999825E-1,-1.759999990E-2
3.891117188E0,3.189999983E-2,3.270999789E-1,1.300000004E-3
3.901043750E0,5.699999630E-3,3.271999955E-1,8.039999753E-2
3.910970313E0,-6.879999489E-2,4.248999953E-1,1.030999944E-1
3.920896875E0,-1.111999974E-1,4.282999933E-1,1.595999897E-1
3.930823438E0,-2.979999967E-2,4.696999788E-1,4.710000008E-2
3.940748438E0,-6.039999798E-2,4.603999853E-1,-2.679999918E-2
3.950675000E0,1.709999889E-2,3.695999980E-1,-1.140000001E-1
3.960601563E0,-5.029999837E-2,3.581999838E-1,-2.589999884E-2
3.970528125E0,1.889999956E-2,2.660999894E-1,-2.869999968E-2
3.980454688E0,-2.630000003E-2,2.924999893E-1,-4.679999873E-2
3.990381250E0,-6.359999627E-2,2.224999964E-1,1.179999951E-2
4.000307813E0,-2.459999919E-2,2.025000006E-1,-3.769999743E-2
4.010232813E0,2.489999868E-2,2.107999921E-1,7.999999798E-4
4.020159375E0,-8.499999531E-3,1.815999895E-1,5.859999731E-2
4.030085938E0,3.199999919E-3,2.324000001E-1,9.369999915E-2
4.040014063E0,1.129999943E-2,2.252999991E-1,1.731999964E-1
4.049939063E0,-9.889999777E-2,2.301999927E-1,1.634999961E-1
4.059865625E0,8.499999531E-3,2.439999878E-1,6.909999996E-2
4.069790625E0,2.419999987E-2,2.060000002E-1,-4.389999807E-2
4.079717188E0,3.819999844E-2,2.162999958E-1,-4.030000046E-2
4.089645313E0,3.629999980E-2,2.142999917E-1,-4.729999974E-2
4.099570313E0,8.060000092E-2,1.739999950E-1,8.669999987E-2
4.109498438E0,1.640000008E-2,1.129999980E-1,-3.570000082E-2
4.119423438E0,-2.639999986E-2,6.279999763E-2,-6.179999933E-2
4.129348438E0,-3.409999982E-2,8.980000019E-2,-1.094999984E-1
4.139275000E0,-3.199999779E-2,8.720000088E-2,-1.158000007E-1
4.149201563E0,1.889999956E-2,1.127999946E-1,-3.299999982E-2
4.159128125E0,9.160000086E-2,9.179999679E-2,1.549999975E-2
4.169054688E0,1.153999940E-1,1.501999944E-1,6.780000031E-2
4.178981250E0,9.429999441E-2,1.922999918E-1,1.738999933E-1
4.188907813E0,-1.199999941E-3,2.741999924E-1,1.187999994E-1
4.198832813E0,-5.179999769E-2,2.770999968E-1,6.340000033E-2
4.208759375E0,-8.529999852E-2,3.283999860E-1,3.460000083E-2
4.218685938E0,-1.109999977E-2,3.987999856E-1,2.369999886E-2
4.228612500E0,0.000000000E0,4.268999994E-1,-4.999999655E-4
4.238539063E0,-5.570000038E-2,4.439999759E-1,-6.769999862E-2
4.248465625E0,-8.829999715E-2,4.522999823E-1,-8.899999782E-3
4.258392188E0,-9.519999474E-2,4.220999777E-1,3.309999779E-2
4.268318750E0,-5.359999835E-2,4.587000012E-1,-5.590000004E-2
4.278243750E0,-3.150000051E-2,4.386000037E-1,5.359999835E-2
4.288170313E0,3.269999847E-2,4.682999849E-1,3.059999831E-2
4.298096875E0,-1.260000002E-2,5.083999634E-1,9.869999439E-2
4.308023438E0,4.859999940E-2,5.480999947E-1,1.187999994E-1
4.317950000E0,1.750000007E-2,5.709999800E-1,1.327999979E-1
4.327876563E0,-3.700000001E-3,5.824999809E-1,9.119999409E-2
4.337801563E0,3.899999894E-3,5.940999985E-1,4.949999973E-2
4.347728125E0,4.030000046E-2,6.139999628E-1,3.390000015E-2
4.357654688E0,-1.480000000E-2,5.960999727E-1,1.123999953E-1
4.367581250E0,-6.799999624E-3,5.572999716E-1,8.689999580E-2
4.377507813E0,-7.409999520E-2,5.575000048E-1,3.739999980E-2
4.387434375E0,-6.099999696E-2,4.987999797E-1,8.200000040E-3
4.397359375E0,-4.799999762E-3,5.090999603E-1,1.439999975E-2
4.407285938E0,7.249999791E-2,4.505999982E-1,1.162000000E-1
4.417212500E0,3.959999979E-2,4.405999780E-1,5.909999833E-2
4.427139063E0,1.329999976E-2,3.709999919E-1,-2.899999917E-2
4.437065625E0,4.429999739E-2,3.021999896E-1,-9.999999311E-4
4.446992188E0,1.589999907E-2,2.926000059E-1,1.489999983E-2
4.456918750E0,-9.499999695E-3,3.016999960E-1,7.270000130E-2
4.466843750E0,7.549999654E-2,3.800999820E-1,7.169999927E-2
4.476770313E0,-5.179999769E-2,3.228999972E-1,4.419999942E-2
4.486696875E0,-8.779999614E-2,2.540000081E-1,-3.130000085E-2
4.496623438E0,-1.939999871E-2,2.520000041E-1,-9.559999406E-2
4.506550000E0,-9.439999610E-2,1.411999911E-1,-8.779999614E-2
4.516476563E0,1.310000010E-2,1.570999920E-1,-1.065999940E-1
4.526401563E0,1.750000007E-2,1.045999974E-1,-4.999999702E-2
4.536328125E0,-5.499999970E-3,9.209999442E-2,-4.120000079E-2
4.546256250E0,-6.039999798E-2,1.206999943E-1,3.999999724E-3
4.556181250E0,4.559999704E-2,1.594000012E-1,4.739999771E-2
4.566107813E0,2.400000021E-2,1.608999968E-1,9.309999645E-2
4.576034375E0,2.169999853E-2,2.327999920E-1,1.840000004E-1
4.585960938E0,-4.729999974E-2,2.272000015E-1,1.401999891E-1
4.595885938E0,-5.339999869E-2,2.389999926E-1,-2.499999944E-3
4.605812500E0,-6.610000134E-2,3.184999824E-1,-5.079999939E-2
4.615739063E0,-2.769999951E-2,2.606000006E-1,0.000000000E0
4.625665625E0,3.070000000E-2,2.707000077E-1,9.659999609E-2
4.635592188E0,2.479999885E-2,2.989999950E-1,5.020000041E-2
4.645518750E0,5.829999968E-2,3.291999996E-1,4.820000008E-2
4.655445313E0,4.339999706E-2,3.006999791E-1,3.299999982E-3
4.665371875E0,2.219999954E-2,3.509999812E-1,6.430000067E-2
4.675296875E0,-1.299999934E-2,4.003999829E-1,9.809999913E-2
4.685223438E0,-7.440000027E-2,4.521999955E-1,1.372999996E-1
4.695150000E0,-7.349999994E-2,4.334999919E-1,2.180000022E-2
4.705076563E0,-2.740000002E-2,4.231999815E-1,-7.829999924E-2
4.715003125E0,1.310000010E-2,4.001999795E-1,-1.362999976E-1
4.724928125E0,1.889999956E-2,3.576999903E-1,-6.639999896E-2
4.734854688E0,-1.189999934E-2,3.337000012E-1,-2.169999853E-2
4.744781250E0,-1.719999872E-2,3.127000034E-1,8.370000124E-2
4.754707813E0,-4.079999775E-2,3.703999817E-1,1.999999862E-3
4.764634375E0,-6.099999696E-2,3.334999979E-1,1.022999957E-1
4.774560938E0,-4.979999736E-2,3.064999878E-1,9.669999778E-2
4.784487500E0,-5.009999871E-2,2.577999830E-1,-4.949999973E-2
4.794412500E0,-2.300000004E-2,2.773999870E-1,2.410000004E-2
4.804339063E0,4.399999976E-2,2.980999947E-1,9.699999355E-3
4.814265625E0,1.061000004E-1,2.173999995E-1,-2.809999883E-2
4.824192188E0,4.609999806E-2,2.559999824E-1,9.250000119E-2
4.834118750E0,6.079999730E-2,2.276999950E-1,5.150000006E-2
4.844045313E0,2.029999904E-2,2.960000038E-1,2.039999887E-2
4.853971875E0,-1.229999959E-2,1.785999984E-1,2.459999919E-2
4.863896875E0,-3.989999741E-2,1.709000021E-1,4.019999877E-2
4.873823438E0,-1.219999976E-2,1.880999953E-1,-8.709999919E-2
4.883750000E0,-4.600000102E-3,2.364999950E-1,1.069999952E-2
4.893676563E0,1.199999941E-3,2.474999875E-1,8.489999920E-2
4.903603125E0,-2.859999985E-2,2.590000033E-1,1.141999960E-1
4.913529688E0,-5.849999934E-2,2.780999839E-1,2.349999920E-2
4.923456250E0,-1.999999955E-2,3.185999990E-1,-3.859999776E-2
4.933381250E0,6.039999798E-2,2.893999815E-1,-4.299999680E-3
4.943307813E0,5.299999844E-3,2.780999839E-1,-2.410000004E-2
4.953234375E0,6.449999660E-2,3.646999896E-1,6.119999662E-2
4.963160938E0,-1.799999969E-3,3.553999960E-1,8.240000159E-2
4.973087500E0,-2.119999938E-2,3.849999905E-1,9.099999443E-3
4.983012500E0,-6.000000052E-3,3.946000040E-1,1.269999985E-2
4.992940625E0,-8.339999616E-2,4.736000001E-1,1.799999923E-2
5.002865625E0,2.190000005E-2,4.548999965E-1,9.640000015E-2
5.012792188E0,-2.759999968E-2,4.253000021E-1,6.009999663E-2
5.022718750E0,2.719999850E-2,4.456000030E-1,4.189999774E-2
5.032645313E0,4.079999775E-2,5.345000029E-1,4.270000011E-2
5.042570313E0,-7.660000026E-2,4.062999785E-1,-4.710000008E-2
5.052496875E0,-4.969999939E-2,4.044999778E-1,-2.169999853E-2
5.062423438E0,3.529999778E-2,3.728999794E-1,-3.559999913E-2
5.072351563E0,1.206999943E-1,3.907999992E-1,3.799999831E-3
5.082276563E0,8.639999479E-2,3.403999805E-1,3.949999809E-2
5.092203125E0,1.199999941E-3,3.695999980E-1,3.909999877E-2
5.102129688E0,-1.102999970E-1,3.789999783E-1,1.499999966E-2
5.112054688E0,-1.110999957E-1,3.897999823E-1,5.309999734E-2
5.121981250E0,-7.919999957E-2,3.234999776E-1,1.158999950E-1
5.131907813E0,3.739999980E-2,4.238999784E-1,1.281999946E-1
5.141832813E0,7.639999688E-2,4.745999873E-1,7.779999822E-2
5.151760938E0,6.319999695E-2,5.156999826E-1,5.169999972E-2
5.161685938E0,2.879999951E-2,4.777999818E-1,4.230000079E-2
5.171612500E0,2.399999881E-3,4.790000021E-1,1.044999957E-1
5.181539063E0,-4.999999888E-3,4.187999964E-1,-1.799999923E-2
5.191465625E0,-2.869999968E-2,3.789999783E-1,-1.030000020E-2
5.201392188E0,-5.260000005E-2,3.294000030E-1,-1.189999934E-2
5.211318750E0,-7.400000002E-3,2.888999879E-1,-2.559999935E-2
5.221243750E0,-6.459999830E-2,2.660999894E-1,-4.239999875E-2
5.231171875E0,4.100000020E-3,2.552999854E-1,-1.799999923E-2
5.241096875E0,-3.119999915E-2,2.349999994E-1,1.279999968E-2
5.251023438E0,-1.699999906E-3,2.839999795E-1,7.099999487E-2
5.260950000E0,7.689999789E-2,2.940999866E-1,6.549999863E-2
5.270876563E0,1.249999925E-2,2.960000038E-1,8.839999884E-2
5.280803125E0,1.669999957E-2,2.175000012E-1,-3.959999979E-2
5.290728125E0,1.300000004E-3,2.967999876E-1,3.619999811E-2
5.300654688E0,-3.969999775E-2,2.488999963E-1,8.109999448E-2
5.310581250E0,-8.749999851E-2,2.584999800E-1,-1.960000023E-2
5.320509375E0,-1.090000011E-2,1.973000020E-1,-6.729999930E-2
5.330434375E0,3.790000081E-2,2.454999983E-1,-6.719999760E-2
5.340360938E0,1.248999983E-1,2.330999970E-1,-6.509999931E-2
5.350285938E0,8.039999753E-2,2.712000012E-1,1.132999957E-1
5.360212500E0,-6.239999831E-2,2.730000019E-1,1.752000004E-1
5.370139063E0,-8.020000160E-2,2.857999802E-1,1.268000007E-1
5.380065625E0,-2.929999866E-2,2.465999871E-1,-8.879999816E-2
5.389992188E0,-5.379999802E-2,2.759999931E-1,-1.333999932E-1
5.399918750E0,-7.499999832E-3,2.958000004E-1,4.519999772E-2
5.409845313E0,2.199999988E-3,2.736999989E-1,8.799999952E-3
5.419770313E0,-5.680000037E-2,2.815999985E-1,5.499999970E-2
5.429696875E0,-6.169999763E-2,3.211999834E-1,-2.219999954E-2
5.439623438E0,-1.099999994E-3,3.322999775E-1,8.599999361E-3
5.449551563E0,5.189999938E-2,3.107999861E-1,-1.549999975E-2
5.459476563E0,3.229999915E-2,2.696999907E-1,-6.740000099E-2
5.469403125E0,-5.199999735E-2,2.681999803E-1,-5.599999800E-3
5.479329688E0,-4.589999840E-2,2.857999802E-1,-9.329999983E-2
5.489254688E0,-6.979999691E-2,2.951000035E-1,5.680000037E-2
5.499181250E0,1.200000010E-2,3.252999783E-1,1.162000000E-1
5.509107813E0,1.080999970E-1,3.655999899E-1,7.699999958E-2
5.519034375E0,1.504999995E-1,3.740999997E-1,-2.190000005E-2
5.528960938E0,9.079999477E-2,3.941999972E-1,-3.570000082E-2
5.538887500E0,7.499999553E-2,4.426999986E-1,2.489999868E-2
5.548812500E0,-2.180000022E-2,3.547999859E-1,1.176999956E-1
5.558739063E0,-6.109999865E-2,4.241999984E-1,1.248999983E-1
5.568665625E0,1.119999960E-2,4.359000027E-1,6.809999794E-2
5.578592188E0,-2.829999849E-2,3.393999934E-1,7.499999832E-3
5.588518750E0,-5.889999866E-2,4.794999957E-1,1.175999939E-1
5.598445313E0,-4.389999807E-2,4.115999937E-1,5.989999697E-2
5.608371875E0,-5.219999701E-2,4.317999780E-1,5.429999903E-2
5.618296875E0,-2.789999917E-2,5.209000111E-1,3.639999777E-2
5.628223438E0,1.040000003E-2,4.848999977E-1,1.250000000E-1
5.638150000E0,2.429999970E-2,5.261999965E-1,1.682000011E-1
5.648076563E0,-2.099999972E-2,4.615999758E-1,1.814000010E-1
5.658003125E0,-2.099999972E-2,4.547999799E-1,7.959999889E-2
5.667929688E0,-4.999999888E-3,4.482999742E-1,3.489999846E-2
5.677856250E0,2.060000040E-2,4.796999991E-1,7.299999893E-2
5.687781250E0,4.799999762E-3,4.980999827E-1,-2.259999886E-2
5.697707813E0,2.300000004E-2,4.939000010E-1,-7.750000060E-2
5.707634375E0,-1.189999934E-2,4.115999937E-1,-1.040999964E-1
5.717560938E0,-2.149999887E-2,3.789999783E-1,-4.829999804E-2
5.727487500E0,2.379999869E-2,4.054999948E-1,5.480000004E-2
5.737414063E0,-1.519999932E-2,4.025999904E-1,-2.659999952E-2
5.747339063E0,1.439999975E-2,3.227999806E-1,-1.809999906E-2
5.757265625E0,4.050000012E-2,3.525999784E-1,4.409999773E-2
5.767192188E0,9.499999695E-3,3.824999928E-1,6.610000134E-2
5.777118750E0,-3.959999979E-2,2.829000056E-1,-1.199999941E-3
5.787045313E0,-2.979999967E-2,3.497999907E-1,-1.048999950E-1
5.796971875E0,2.329999954E-2,3.282999992E-1,-8.999999613E-2
5.806898438E0,1.438999921E-1,2.572999895E-1,-3.759999946E-2
5.816823438E0,1.213999987E-1,1.861999929E-1,-9.999999747E-5
5.826750000E0,6.169999763E-2,1.952999979E-1,6.119999662E-2
5.836676563E0,2.329999954E-2,1.966999918E-1,7.159999758E-2
5.846603125E0,3.999999724E-3,1.283999979E-1,-2.879999951E-2
5.856529688E0,-9.849999845E-2,1.955000013E-1,-1.045999974E-1
5.866456250E0,-3.999999911E-2,1.938000023E-1,-8.929999918E-2
5.876381250E0,-1.679999940E-2,1.634999961E-1,3.159999847E-2
5.886307813E0,1.239999942E-2,1.923999935E-1,9.019999951E-2
5.896234375E0,-1.529999916E-2,2.228999883E-1,1.289999932E-1
5.906160938E0,-3.399999812E-3,2.532999814E-1,-5.099999718E-3
5.916087500E0,-1.909999922E-2,2.254000008E-1,-1.999999949E-4
5.926014063E0,1.809999906E-2,1.753000021E-1,-9.070000052E-2
5.935940625E0,1.209999993E-2,1.937000006E-1,-3.240000084E-2
5.945865625E0,-1.719999872E-2,2.129999995E-1,1.005999967E-1
5.955792188E0,-5.499999970E-3,2.933000028E-1,1.391000003E-1
5.965718750E0,-1.529999916E-2,2.838000059E-1,3.610000014E-2
5.975645313E0,2.389999852E-2,2.583000064E-1,1.525999904E-1
5.985571875E0,6.159999967E-2,3.991999924E-1,1.021999940E-1
5.995498438E0,6.039999798E-2,3.429999948E-1,1.071999967E-1
6.005425000E0,1.899999916E-3,4.032999873E-1,7.019999623E-2
6.015350000E0,1.449999958E-2,4.532999992E-1,-6.799999624E-2
6.025276563E0,-4.199999943E-2,4.715999961E-1,-1.249999925E-2
6.035203125E0,-3.869999945E-2,4.122000039E-1,3.240000084E-2
6.045129688E0,9.899999946E-3,3.989999890E-1,-8.060000092E-2
6.055056250E0,1.999999862E-3,4.748999774E-1,-2.439999953E-2
6.064982813E0,7.289999723E-2,3.853999972E-1,-4.569999874E-2
6.074909375E0,7.769999653E-2,3.643999994E-1,-1.279999968E-2
6.084834375E0,3.700000001E-3,3.626999855E-1,2.649999969E-2
6.094760938E0,-5.119999871E-2,4.120000005E-1,5.049999803E-2
6.104687500E0,-1.206999943E-1,3.640999794E-1,1.186999977E-1
6.114614063E0,-7.880000025E-2,4.043999910E-1,6.089999899E-2
6.124540625E0,-4.109999910E-2,3.465999961E-1,4.369999841E-2
6.134467188E0,8.999999613E-3,3.673999906E-1,3.659999743E-2
6.144392188E0,-3.689999878E-2,4.080999792E-1,5.689999834E-2
6.154318750E0,8.299999870E-3,3.795000017E-1,9.479999542E-2
6.164245313E0,6.179999933E-2,3.513000011E-1,6.729999930E-2
6.174171875E0,5.469999835E-2,3.614999950E-1,2.899999963E-3
6.184098438E0,5.920000002E-2,4.111999869E-1,2.359999903E-2
6.194025000E0,1.499999966E-2,3.623999953E-1,2.099999972E-2
6.203951563E0,-1.579999924E-2,4.294999838E-1,-2.620000020E-2
6.213876563E0,-2.190000005E-2,3.686999977E-1,-3.889999911E-2
6.223803125E0,-1.190999970E-1,3.583000004E-1,7.699999958E-3
6.233729688E0,-5.350000039E-2,3.172000051E-1,-4.360000044E-2
6.243656250E0,-2.279999852E-2,3.253999949E-1,0.000000000E0
6.253582813E0,-3.729999810E-2,2.951999903E-1,-6.000000052E-3
6.263507813E0,2.499999851E-2,3.244999945E-1,1.679999940E-2
6.273434375E0,1.359999925E-2,3.332999945E-1,1.209999993E-2
6.283360938E0,5.729999766E-2,2.956999838E-1,1.225999966E-1
6.293287500E0,4.499999806E-3,2.368000001E-1,-3.999999724E-3
6.303214063E0,-2.259999886E-2,2.254999876E-1,-1.096000001E-1
6.313140625E0,-1.269999985E-2,2.040999979E-1,-1.001999974E-1
6.323067188E0,-3.619999811E-2,2.034999877E-1,-1.960000023E-2
6.332992188E0,2.840000018E-2,1.431999952E-1,7.400000095E-2
6.342918750E0,4.829999804E-2,1.515000015E-1,-2.740000002E-2
6.352845313E0,-1.239999942E-2,1.516000032E-1,-1.829999872E-2
6.362771875E0,-2.799999900E-2,1.141999960E-1,9.510000050E-2
6.372698438E0,-4.569999874E-2,1.838999987E-1,6.769999862E-2
6.382623438E0,-5.590000004E-2,1.955999881E-1,1.747999936E-1
6.392550000E0,-3.079999983E-2,1.604999900E-1,1.349000037E-1
6.402476563E0,-3.309999779E-2,1.435000002E-1,-1.750000007E-2
6.412403125E0,-2.759999968E-2,1.722999960E-1,-8.569999784E-2
6.422329688E0,1.529999916E-2,2.299999893E-1,-1.168999970E-1
6.432254688E0,8.419999480E-2,2.671999931E-1,6.899999920E-3
6.442181250E0,4.099999741E-2,3.228999972E-1,-3.329999745E-2
6.452107813E0,7.889999449E-2,2.638999820E-1,1.015999988E-1
6.462034375E0,3.049999848E-2,3.231999874E-1,5.279999971E-2
6.471960938E0,-6.159999967E-2,2.939999998E-1,-3.830000013E-2
6.481887500E0,2.279999852E-2,2.829999924E-1,-3.869999945E-2
6.491814063E0,-2.609999850E-2,3.035999835E-1,3.399999812E-2
6.501739063E0,-2.869999968E-2,3.328999877E-1,8.579999954E-2
6.511665625E0,1.620000042E-2,3.143999875E-1,1.274999976E-1
6.521592188E0,2.850000001E-2,3.265999854E-1,1.096000001E-1
6.531518750E0,4.600000102E-3,4.377999902E-1,1.017999947E-1
6.541445313E0,7.999999798E-4,3.712999821E-1,6.269999593E-2
6.551371875E0,8.999999613E-3,4.402000010E-1,-1.989999972E-2
6.561298438E0,-2.600000007E-3,3.125999868E-1,1.399999950E-3
6.571223438E0,-3.049999848E-2,3.719999790E-1,6.309999526E-2
6.581150000E0,-4.849999771E-2,3.418999910E-1,1.409999933E-2
6.591076563E0,-2.919999883E-2,3.594000041E-1,-5.579999834E-2
6.601003125E0,-7.909999788E-2,2.906000018E-1,-2.089999989E-2
6.610929688E0,1.860000007E-2,2.791000009E-1,-6.539999694E-2
6.620856250E0,2.850000001E-2,3.057999909E-1,-4.419999942E-2
6.630781250E0,7.050000131E-2,2.048999965E-1,-7.079999894E-2
6.640707813E0,4.749999940E-2,2.241999954E-1,3.130000085E-2
6.650634375E0,-2.060000040E-2,2.912999988E-1,-1.239999942E-2
6.660560938E0,2.469999902E-2,3.814999759E-1,1.898999959E-1
6.670487500E0,5.399999674E-3,3.249000013E-1,1.442999989E-1
6.680414063E0,2.309999987E-2,3.480999768E-1,1.206000000E-1
6.690340625E0,-2.019999921E-2,3.603999913E-1,8.649999648E-2
6.700265625E0,-6.359999627E-2,3.334999979E-1,-2.529999986E-2
6.710192188E0,-1.097999960E-1,3.134000003E-1,-7.199999876E-3
6.720118750E0,-2.410000004E-2,3.616999984E-1,-1.509999949E-2
6.730045313E0,3.629999980E-2,2.915999889E-1,-1.480000000E-2
6.739971875E0,4.619999975E-2,3.179000020E-1,-9.749999642E-2
6.749898438E0,5.249999836E-2,3.149999976E-1,-1.147999987E-1
6.759825000E0,6.359999627E-2,2.437999994E-1,-4.829999804E-2
6.769750000E0,1.519999932E-2,3.519999981E-1,1.518999934E-1
6.779676563E0,5.599999800E-3,3.919000030E-1,1.595000029E-1
6.789603125E0,-4.930000007E-2,4.237999916E-1,1.309999973E-1
6.799529688E0,-1.050999984E-1,4.065999985E-1,1.789999940E-2
6.809456250E0,6.000000052E-3,3.310000002E-1,2.859999985E-2
6.819382813E0,-1.019999944E-2,4.195999801E-1,4.529999942E-2
6.829309375E0,-4.900000058E-3,4.220999777E-1,1.805000007E-1
6.839234375E0,-1.099999994E-3,3.545999825E-1,7.789999992E-2
6.849160938E0,6.679999828E-2,3.285999894E-1,1.118999943E-1
6.859087500E0,3.959999979E-2,3.497000039E-1,1.480000000E-2
6.869014063E0,-6.049999967E-2,3.321000040E-1,2.199999988E-2
6.878940625E0,-9.439999610E-2,4.283999801E-1,-6.300000008E-3
6.888867188E0,-1.347000003E-1,3.495999873E-1,-1.850000024E-2
6.898793750E0,2.319999970E-2,3.762999773E-1,-4.279999807E-2
6.908718750E0,8.499999531E-3,3.852999806E-1,2.999999851E-4
6.918645313E0,7.549999654E-2,3.829999864E-1,-1.159999985E-2
6.928571875E0,1.261000037E-1,3.624999821E-1,4.389999807E-2
6.938498438E0,1.169999968E-2,3.610000014E-1,-7.499999832E-3
6.948425000E0,3.390000015E-2,4.106999934E-1,7.000000030E-2
6.958351563E0,-2.219999954E-2,4.515999854E-1,1.367999911E-1
6.968276563E0,4.710000008E-2,4.838999808E-1,1.401000023E-1
6.978203125E0,4.519999772E-2,4.954999983E-1,9.820000082E-2
6.988129688E0,-1.119999960E-2,4.781000018E-1,2.300000004E-2
6.998056250E0,-1.063999981E-1,4.402000010E-1,2.809999883E-2
7.007982813E0,-6.769999862E-2,5.376999974E-1,1.539999992E-2
7.017909375E0,-1.799999969E-3,4.587000012E-1,5.169999972E-2
7.027834375E0,7.050000131E-2,4.492999911E-1,8.639999479E-2
7.037760938E0,-6.399999838E-3,4.887999892E-1,3.390000015E-2
7.047687500E0,-3.350000083E-2,4.394999743E-1,1.799999923E-2
7.057614063E0,-5.109999701E-2,3.510999978E-1,-8.999999845E-4
7.067540625E0,-7.149999589E-2,4.091999829E-1,-2.999999851E-4
7.077467188E0,-6.289999932E-2,2.707000077E-1,7.499999832E-3
7.087393750E0,2.950000018E-2,2.689000070E-1,-4.809999838E-2
7.097320313E0,3.769999743E-2,2.960999906E-1,-5.130000040E-2
7.107245313E0,-2.300000004E-2,2.465999871E-1,3.500000015E-2
7.117171875E0,-1.480000000E-2,2.676999867E-1,1.432999969E-1
7.127098438E0,-2.229999937E-2,1.997999996E-1,8.370000124E-2
7.137025000E0,-4.409999773E-2,1.807999909E-1,-2.929999866E-2
7.146951563E0,-4.829999804E-2,1.815000027E-1,-7.220000029E-2
7.156878125E0,-2.840000018E-2,9.219999611E-2,-7.719999552E-2
7.166804688E0,-5.599999800E-2,2.081999928E-1,2.709999867E-2
7.176729688E0,4.399999976E-3,2.069000006E-1,3.659999743E-2
7.186656250E0,6.340000033E-2,1.865999997E-1,3.299999982E-3
7.196582813E0,1.030999944E-1,2.070999891E-1,6.489999592E-2
7.206509375E0,1.387999952E-1,2.289999872E-1,1.169999987E-1
7.216435938E0,5.539999902E-2,2.507999837E-1,1.341999918E-1
7.226362500E0,-3.439999744E-2,3.322999775E-1,1.177999973E-1
7.236287500E0,-1.850000024E-2,3.535999954E-1,-1.979999989E-2
7.246214063E0,-3.429999948E-2,3.209999800E-1,-1.996999979E-1
7.256140625E0,3.999999899E-4,2.964999974E-1,-1.792999953E-1
7.266067188E0,7.999999449E-3,2.812999785E-1,-1.184999943E-1
7.275993750E0,-2.129999921E-2,2.377999872E-1,1.599999960E-3
7.285920313E0,-9.429999441E-2,2.162999958E-1,7.169999927E-2
7.295845313E0,-8.109999448E-2,2.381999940E-1,1.482999921E-1
7.305771875E0,-4.649999738E-2,2.800000012E-1,8.639999479E-2
7.315698438E0,9.800000116E-3,3.039999902E-1,1.472999901E-1
7.325625000E0,2.889999934E-2,2.970999777E-1,6.300000101E-2
7.335551563E0,8.219999820E-2,3.666999936E-1,-2.799999900E-3
7.345478125E0,5.509999767E-2,4.544999897E-1,1.809999906E-2
7.355404688E0,-9.200000204E-3,4.640999734E-1,-1.040000003E-2
7.365329688E0,-8.819999546E-2,3.747999966E-1,4.289999977E-2
7.375256250E0,-3.749999776E-2,3.948999941E-1,9.579999745E-2
7.385182813E0,8.240000159E-2,3.572999835E-1,9.470000118E-2
7.395109375E0,9.879999608E-2,3.402999938E-1,1.314999908E-1
7.405035938E0,6.039999798E-2,3.526999950E-1,7.009999454E-2
7.414962500E0,-1.489999983E-2,2.867999971E-1,7.759999484E-2
7.424887500E0,-4.769999906E-2,2.784000039E-1,3.269999847E-2
7.434814063E0,2.689999901E-2,2.583000064E-1,-4.979999736E-2
7.444740625E0,-4.219999909E-2,3.066000044E-1,1.759999990E-2
7.454667188E0,1.239999942E-2,3.638999760E-1,-3.379999846E-2
7.464593750E0,1.640000008E-2,3.707999885E-1,-3.150000051E-2
7.474520313E0,6.229999661E-2,3.093000054E-1,-3.009999916E-2
7.484446875E0,7.050000131E-2,2.682999969E-1,-4.820000008E-2
7.494371875E0,1.040000003E-2,2.947999835E-1,-3.199999779E-2
7.504298438E0,-2.469999902E-2,2.523999810E-1,-9.779999405E-2
7.514225000E0,-2.850000001E-2,3.489999771E-1,1.109999977E-2
7.524151563E0,-4.270000011E-2,3.204999864E-1,1.451999992E-1
7.534078125E0,-8.689999580E-2,3.707000017E-1,1.100999936E-1
7.544004688E0,2.649999969E-2,4.205999970E-1,5.949999765E-2
7.553931250E0,2.639999986E-2,3.652999997E-1,8.269999921E-2
7.563856250E0,5.009999871E-2,3.956999779E-1,-1.789999940E-2
7.573782813E0,3.879999742E-2,4.833000004E-1,3.909999877E-2
7.583709375E0,-1.119999960E-2,4.347999990E-1,8.150000125E-2
7.593635938E0,-9.049999714E-2,3.755999804E-1,-2.139999904E-2
7.603562500E0,-3.999999911E-2,3.652999997E-1,5.279999971E-2
7.613489063E0,-5.469999835E-2,3.962999880E-1,7.329999655E-2
7.623414063E0,2.520000003E-2,3.583000004E-1,6.989999861E-2
7.633340625E0,6.260000169E-2,3.889999986E-1,1.226999983E-1
7.643267188E0,1.019999944E-2,3.127000034E-1,3.830000013E-2
7.653192188E0,-5.069999769E-2,3.039000034E-1,1.799999923E-2
7.663120313E0,-9.030000120E-2,4.003999829E-1,-7.099999487E-2
7.673045313E0,-6.759999692E-2,3.896999955E-1,-1.019999944E-2
7.682971875E0,1.819999889E-2,3.012000024E-1,9.200000018E-2
7.692898438E0,9.089999646E-2,3.296999931E-1,2.319999970E-2
7.702825000E0,6.399999559E-2,3.190000057E-1,2.309999987E-2
7.712750000E0,5.329999700E-2,3.770000041E-1,-6.759999692E-2
7.722678125E0,2.300000004E-2,3.455999792E-1,-8.299999684E-2
7.732603125E0,2.969999984E-2,3.334999979E-1,2.419999987E-2
7.742529688E0,1.420000009E-2,3.331999779E-1,7.719999552E-2
7.752457813E0,2.249999903E-2,3.933999836E-1,1.674000025E-1
7.762382813E0,-2.459999919E-2,3.370999992E-1,9.749999642E-2
7.772309375E0,-6.799999624E-3,3.986999989E-1,4.479999840E-2
7.782235938E0,-1.217999980E-1,3.888999820E-1,-4.439999908E-2
7.792160938E0,1.129999943E-2,3.578999937E-1,-8.419999480E-2
7.802087500E0,3.659999743E-2,3.765999973E-1,7.379999757E-2
7.812015625E0,4.069999978E-2,2.973999977E-1,5.309999734E-2
7.821940625E0,-8.499999531E-3,2.858999968E-1,-1.409999933E-2
7.831868750E0,-1.381999999E-1,2.940999866E-1,-8.109999448E-2
7.841793750E0,-1.136999950E-1,2.644999921E-1,-4.729999974E-2
7.851718750E0,-7.549999654E-2,2.938999832E-1,1.041999981E-1
7.861645313E0,-1.970000006E-2,2.949000001E-1,1.358999908E-1
7.871573438E0,6.039999798E-2,2.472999990E-1,7.119999826E-2
7.881498438E0,4.509999976E-2,3.263999820E-1,-4.749999940E-2
7.891425000E0,4.349999875E-2,3.570999801E-1,1.139999926E-2
7.901351563E0,-1.199999941E-3,3.762999773E-1,4.389999807E-2
7.911278125E0,-1.260000002E-2,3.371999860E-1,1.093999967E-1
7.921204688E0,2.060000040E-2,3.464999795E-1,2.639999986E-2
7.931131250E0,4.659999907E-2,3.190999925E-1,4.099999741E-2
7.941056250E0,2.129999921E-2,3.784999847E-1,2.400000021E-2
7.950982813E0,-3.739999980E-2,3.792999983E-1,5.389999971E-2
7.960909375E0,2.569999918E-2,3.694999814E-1,8.190000057E-2
7.970835938E0,3.399999812E-2,3.511999846E-1,4.719999805E-2
7.980762500E0,5.399999768E-2,3.123999834E-1,3.159999847E-2
7.990687500E0,5.649999902E-2,4.008999765E-1,8.599999361E-3
8.000614063E0,-1.919999905E-2,3.768000007E-1,-1.937000006E-1
8.010540625E0,-1.318999976E-1,3.969999850E-1,1.423999965E-1
8.020467188E0,2.300000004E-2,3.572999835E-1,5.989999697E-2
8.030393750E0,2.679999918E-2,2.788999975E-1,7.909999788E-2
8.040320313E0,2.649999969E-2,2.791000009E-1,5.759999901E-2
8.050245313E0,-7.009999454E-2,2.626000047E-1,-5.659999698E-2
8.060171875E0,-2.039999887E-2,3.084999919E-1,-4.969999939E-2
8.070098438E0,1.459999941E-2,3.149999976E-1,-1.165999994E-1
8.080025000E0,-5.849999934E-2,2.823999822E-1,-5.519999936E-2
8.089951563E0,1.159999985E-2,2.716999948E-1,8.549999446E-2
8.099878125E0,-7.699999958E-3,3.021999896E-1,1.396999955E-1
8.109804688E0,-1.979999989E-2,3.907999992E-1,5.689999834E-2
8.119729688E0,4.869999737E-2,3.346999884E-1,7.029999793E-2
8.129656250E0,3.759999946E-2,3.470999897E-1,4.710000008E-2
8.139582813E0,5.969999731E-2,2.809000015E-1,1.247999966E-1
8.149509375E0,5.659999698E-2,4.084999859E-1,5.399999768E-2
8.159435938E0,3.009999916E-2,4.002999961E-1,3.519999981E-2
8.169362500E0,-1.469999924E-2,4.000999928E-1,-2.070000023E-2
8.179289063E0,-2.639999986E-2,3.317999840E-1,1.439999975E-2
8.189214063E0,-1.279999968E-2,3.121999800E-1,1.030999944E-1
8.199140625E0,-1.319999993E-2,2.831999958E-1,4.820000008E-2
8.209067188E0,-5.119999871E-2,3.411999941E-1,-1.989999972E-2
8.218993750E0,1.599999960E-3,2.818000019E-1,-5.350000039E-2
8.228920313E0,-1.229999959E-2,3.102000058E-1,-3.079999983E-2
8.238846875E0,-1.249999925E-2,2.981999815E-1,1.499999966E-2
8.248773438E0,1.869999990E-2,2.463999987E-1,-3.959999979E-2
8.258698438E0,4.869999737E-2,2.653000057E-1,1.779999956E-2
8.268625000E0,2.339999937E-2,2.653000057E-1,2.740000002E-2
8.278551563E0,5.329999700E-2,3.452999890E-1,1.168999970E-1
8.288478125E0,8.700000122E-3,2.469999939E-1,2.190000005E-2
8.298404688E0,-1.659999974E-2,2.760999799E-1,-6.199999899E-2
8.308331250E0,-2.850000001E-2,2.752999961E-1,-3.280000016E-2
8.318256250E0,-2.469999902E-2,2.646999955E-1,-1.349999942E-2
8.328182813E0,-1.139999926E-2,2.146999985E-1,7.819999754E-2
8.338109375E0,-2.749999985E-2,2.333999872E-1,1.099999994E-2
8.348035938E0,-3.370000049E-2,2.743999958E-1,7.639999688E-2
8.357962500E0,-3.989999741E-2,2.942999899E-1,-5.399999674E-3
8.367889063E0,-5.819999799E-2,2.953000069E-1,3.249999881E-2
8.377815625E0,9.999999776E-3,3.439999819E-1,4.619999975E-2
8.387740625E0,-2.589999884E-2,3.933999836E-1,3.700000001E-3
8.397667188E0,-3.240000084E-2,3.937999904E-1,8.810000122E-2
8.407593750E0,3.209999949E-2,4.448999763E-1,1.013999954E-1
8.417520313E0,-3.469999880E-2,4.264999926E-1,7.669999450E-2
8.427446875E0,9.899999946E-3,4.172999859E-1,3.109999932E-2
8.437373438E0,7.739999890E-2,4.379999936E-1,1.679999940E-2
8.447300000E0,3.709999844E-2,4.675000012E-1,4.360000044E-2
8.457225000E0,3.739999980E-2,5.069000125E-1,8.009999990E-2
8.467151563E0,7.050000131E-2,5.381000042E-1,1.477999985E-1
8.477078125E0,6.619999558E-2,4.311999977E-1,3.879999742E-2
8.487004688E0,2.559999935E-2,4.021999836E-1,-4.699999932E-3
8.496931250E0,-2.099999972E-2,5.485999584E-1,-2.539999969E-2
8.506857813E0,4.900000058E-3,4.011999965E-1,2.730000019E-2
8.516784375E0,2.840000018E-2,3.215000033E-1,6.199999899E-2
8.526709375E0,4.409999773E-2,3.078999817E-1,-1.383000016E-1
8.536635938E0,-1.279999968E-2,3.543999791E-1,-6.780000031E-2
8.546562500E0,2.049999870E-2,2.741999924E-1,-5.329999700E-2
8.556489063E0,-4.259999841E-2,2.617999911E-1,-9.399999864E-3
8.566415625E0,-5.489999801E-2,2.404999882E-1,1.004999951E-1
8.576340625E0,-7.349999994E-2,2.425999939E-1,9.869999439E-2
8.586267188E0,-1.096999943E-1,2.236000001E-1,1.079999935E-2
8.596193750E0,-2.809999883E-2,1.950999945E-1,1.999999949E-4
8.606120313E0,-9.999999311E-4,2.060000002E-1,1.539999992E-2
8.616046875E0,5.769999698E-2,1.991999894E-1,1.842999905E-1
8.625973438E0,-2.279999852E-2,2.414999902E-1,1.773999929E-1
8.635900000E0,-6.009999663E-2,2.245000005E-1,3.889999911E-2
8.645826563E0,-9.589999914E-2,2.254999876E-1,-7.800000161E-2
8.655753125E0,4.729999974E-2,1.556999981E-1,-1.539999992E-1
8.665678125E0,1.498000026E-1,1.111999974E-1,-1.414999962E-1
8.675604688E0,1.092999950E-1,1.143999994E-1,-1.375000030E-1
8.685531250E0,3.130000085E-2,2.005999982E-1,6.759999692E-2
8.695457813E0,4.580000043E-2,1.498000026E-1,-1.209999993E-2
8.705384375E0,-5.779999867E-2,2.377999872E-1,4.010000080E-2
8.715310938E0,-4.030000046E-2,2.690999806E-1,1.292999983E-1
8.725235938E0,-2.479999885E-2,3.225999773E-1,1.653999984E-1
8.735162500E0,-1.899999939E-2,3.529999852E-1,7.389999926E-2
8.745089063E0,-2.369999886E-2,3.656999767E-1,5.700000003E-2
8.755015625E0,5.599999800E-3,4.081999958E-1,7.689999789E-2
8.764942188E0,-1.009999961E-2,4.574999809E-1,5.499999970E-3
8.774867188E0,9.399999864E-3,4.266999960E-1,1.229999959E-2
8.784793750E0,-2.229999937E-2,4.843999743E-1,-3.319999948E-2
8.794720313E0,1.119999960E-2,5.033999681E-1,2.339999937E-2
8.804646875E0,5.879999697E-2,5.331000090E-1,1.375000030E-1
8.814573438E0,1.209999993E-2,5.436999798E-1,8.850000054E-2
8.824500000E0,-4.710000008E-2,5.735999942E-1,5.399999768E-2
8.834426563E0,-1.087999940E-1,5.351999998E-1,4.499999806E-3
8.844351563E0,4.239999875E-2,5.245999694E-1,-4.470000044E-2
8.854278125E0,8.200000040E-3,5.033999681E-1,3.390000015E-2
8.864204688E0,-1.599999890E-2,5.338999629E-1,1.580999941E-1
8.874131250E0,-7.759999484E-2,4.755999744E-1,7.440000027E-2
8.884057813E0,-9.149999917E-2,4.078999758E-1,5.329999700E-2
8.893984375E0,-8.739999682E-2,3.601999879E-1,-2.529999986E-2
8.903910938E0,-2.159999870E-2,3.612000048E-1,1.569999941E-2
8.913835938E0,3.729999810E-2,3.597999811E-1,3.329999745E-2
8.923762500E0,6.379999965E-2,2.906000018E-1,2.799999900E-2
8.933689063E0,5.489999801E-2,3.190000057E-1,8.399999700E-3
8.943615625E0,1.269999985E-2,2.490999997E-1,-5.849999934E-2
8.953540625E0,6.879999489E-2,2.552999854E-1,-1.243999973E-1
8.963467188E0,3.810000047E-2,2.522000074E-1,-7.429999858E-2
8.973393750E0,7.220000029E-2,2.018999904E-1,5.920000002E-2
8.983320313E0,8.079999685E-2,2.116999924E-1,1.087999940E-1
8.993246875E0,-8.799999952E-3,2.529000044E-1,1.508999914E-1
9.003171875E0,-7.580000162E-2,2.956999838E-1,1.039000005E-1
9.013100000E0,-7.409999520E-2,2.890999913E-1,3.509999812E-2
9.023025000E0,2.769999951E-2,2.219000012E-1,1.819999889E-2
9.032951563E0,3.920000046E-2,2.034000009E-1,3.399999812E-2
9.042878125E0,6.879999489E-2,2.718999982E-1,2.620000020E-2
9.052804688E0,4.499999806E-3,2.303999960E-1,-8.359999955E-2
9.062731250E0,-5.219999701E-2,1.979999989E-1,-1.253999919E-1
9.072656250E0,-1.037999988E-1,2.158999890E-1,-1.620000042E-2
9.082582813E0,-7.689999789E-2,2.034999877E-1,-2.089999989E-2
9.092509375E0,2.060000040E-2,2.424999923E-1,1.296000034E-1
9.102435938E0,-1.699999906E-2,2.336999923E-1,5.949999765E-2
9.112362500E0,2.199999988E-3,2.462999970E-1,7.299999893E-2
9.122289063E0,-3.509999812E-2,2.965999842E-1,4.729999974E-2
9.132215625E0,-4.910000041E-2,2.687999904E-1,7.799999788E-3
9.142142188E0,-2.029999904E-2,2.981999815E-1,3.989999741E-2
9.152067188E0,-4.999999888E-3,3.689000010E-1,1.036999971E-1
9.161993750E0,4.959999770E-2,4.184999764E-1,5.769999698E-2
9.171920313E0,1.429999992E-2,3.889999986E-1,8.299999870E-3
9.181846875E0,-1.119999960E-2,4.276999831E-1,-3.439999744E-2
9.191773438E0,4.809999838E-2,4.174000025E-1,8.499999531E-3
9.201698438E0,1.539999992E-2,3.373000026E-1,2.679999918E-2
9.211625000E0,1.370000001E-2,2.773000002E-1,1.209999993E-2
9.221551563E0,2.979999967E-2,4.035999775E-1,-3.799999831E-3
9.231478125E0,-1.869999990E-2,2.763999999E-1,2.139999904E-2
9.241404688E0,-6.819999963E-2,3.055999875E-1,2.539999969E-2
9.251331250E0,-2.139999904E-2,3.544999957E-1,4.719999805E-2
9.261257813E0,-6.939999759E-2,3.752000034E-1,8.460000157E-2
9.271182813E0,-1.129999943E-2,4.361999929E-1,8.999999613E-2
9.281109375E0,7.599999662E-3,4.178999960E-1,6.549999863E-2
9.291035938E0,5.109999701E-2,4.587000012E-1,7.490000129E-2
9.300962500E0,1.159999985E-2,4.611999989E-1,1.054999977E-1
9.310890625E0,6.969999522E-2,5.105999708E-1,3.949999809E-2
9.320815625E0,7.499999832E-3,4.707999825E-1,-3.399999812E-3
9.330742188E0,2.799999900E-2,4.994999766E-1,-6.300000008E-3
9.340667188E0,-1.909999922E-2,4.687999785E-1,-1.090000011E-2
9.350593750E0,-8.810000122E-2,4.052999914E-1,-1.127999946E-1
9.360520313E0,-1.420000009E-2,4.010999799E-1,-1.172999963E-1
9.370446875E0,-4.010000080E-2,3.701999784E-1,3.130000085E-2
9.380373438E0,-3.399999812E-3,3.700999916E-1,1.215999946E-1
9.390300000E0,-5.089999735E-2,2.629999816E-1,1.347000003E-1
9.400226563E0,-1.240999997E-1,2.842999995E-1,2.779999934E-2
9.410151563E0,-7.189999521E-2,2.575999796E-1,-1.049999986E-2
9.420078125E0,-5.489999801E-2,3.285999894E-1,7.389999926E-2
9.430004688E0,-1.640000008E-2,3.208999932E-1,1.149000004E-1
9.439931250E0,6.599999964E-3,2.741999924E-1,1.491999924E-1
9.449857813E0,9.529999644E-2,3.928999901E-1,2.209999971E-2
9.459784375E0,5.460000038E-2,3.143000007E-1,-7.880000025E-2
9.469710938E0,7.149999589E-2,3.222999871E-1,-5.419999734E-2
9.479635938E0,4.910000041E-2,2.805999815E-1,-2.049999870E-2
9.489562500E0,6.619999558E-2,2.281999886E-1,1.459999941E-2
9.499489063E0,3.959999979E-2,1.366000026E-1,-1.004000008E-1
9.509415625E0,2.659999952E-2,1.554999948E-1,-4.799999762E-3
9.519342188E0,-3.399999812E-2,1.949999928E-1,6.009999663E-2
9.529268750E0,-5.759999901E-2,2.541999817E-1,7.559999824E-2
9.539193750E0,6.899999920E-3,2.349999994E-1,7.979999483E-2
9.549120313E0,1.850000024E-2,2.188999951E-1,8.419999480E-2
9.559046875E0,2.229999937E-2,1.995999962E-1,-4.639999941E-2
9.568973438E0,-2.479999885E-2,2.581999898E-1,-4.299999680E-3
9.578900000E0,-4.439999908E-2,3.075000048E-1,4.160000011E-2
9.588826563E0,3.790000081E-2,2.779999971E-1,3.240000084E-2
9.598753125E0,2.620000020E-2,2.967000008E-1,4.309999943E-2
9.608678125E0,-4.679999873E-2,2.964999974E-1,-4.160000011E-2
9.618625000E0,1.399999950E-2,3.343999982E-1,-5.469999835E-2
9.628531250E0,-3.689999878E-2,3.425999880E-1,-1.370000001E-2
9.638457813E0,-1.389999967E-2,3.819999993E-1,1.017000005E-1
9.648384375E0,-2.639999986E-2,3.926999867E-1,1.310999990E-1
9.658310938E0,-1.869999990E-2,4.129000008E-1,2.539999969E-2
9.668235938E0,1.609999873E-2,4.907999933E-1,-7.440000027E-2
9.678162500E0,3.579999879E-2,5.200999975E-1,-1.480000000E-2
9.688089063E0,4.399999976E-3,4.400999844E-1,1.439999975E-2
9.698015625E0,-3.099999856E-3,4.585999846E-1,9.709999710E-2
9.707942188E0,-2.439999953E-2,3.310999870E-1,5.859999731E-2
9.717868750E0,1.109999977E-2,3.422999978E-1,2.989999950E-2
9.727795313E0,-8.169999719E-2,2.936999798E-1,-2.699999837E-3
9.737720313E0,-9.409999847E-2,2.845000029E-1,1.260000002E-2
9.747646875E0,-6.719999760E-2,3.131999969E-1,6.000000052E-3
9.757573438E0,3.199999919E-3,2.631999850E-1,-2.689999901E-2
9.767500000E0,1.094999984E-1,2.511000037E-1,-8.419999480E-2
9.777426563E0,9.279999882E-2,2.210000008E-1,2.829999849E-2
9.787353125E0,5.829999968E-2,3.177999854E-1,3.039999865E-2
9.797278125E0,4.759999737E-2,3.466999829E-1,5.429999903E-2
9.807204688E0,1.109999977E-2,3.763999939E-1,5.810000002E-2
9.817131250E0,1.319999993E-2,3.603999913E-1,1.458999962E-1
9.827057813E0,1.539999992E-2,3.716000021E-1,7.819999754E-2
9.836984375E0,3.949999809E-2,4.028999805E-1,7.270000130E-2
9.846910938E0,-5.689999834E-2,4.055999815E-1,9.849999845E-2
9.856837500E0,2.369999886E-2,3.977999985E-1,3.509999812E-2
9.866762500E0,-1.719999909E-1,3.871999979E-1,5.599999800E-3
9.876689063E0,-9.079999477E-2,3.373000026E-1,-5.049999803E-2
9.886615625E0,-7.469999790E-2,3.050000072E-1,-1.460999995E-1
9.896542188E0,-6.560000032E-2,2.821999788E-1,-6.939999759E-2
9.906468750E0,-3.799999831E-3,2.807999849E-1,1.809999906E-2
9.916395313E0,-1.519999932E-2,2.989999950E-1,4.769999906E-2
9.926321875E0,-4.710000008E-2,2.998999953E-1,1.181999967E-1
9.936246875E0,-4.360000044E-2,3.032999933E-1,1.237000003E-1
9.946173438E0,-2.699999837E-3,3.346000016E-1,3.909999877E-2
9.956100000E0,5.759999901E-2,4.434999824E-1,3.419999778E-2
9.966026563E0,4.759999737E-2,4.153999984E-1,4.449999705E-2
9.975953125E0,6.790000200E-2,4.163999856E-1,1.039999947E-1
9.985879688E0,7.699999958E-2,4.560000002E-1,1.108999997E-1
9.995806250E0,6.069999933E-2,4.179999828E-1,6.209999695E-2
1.000573125E1,-1.300000004E-3,4.098999798E-1,5.079999939E-2
1.001565781E1,4.089999944E-2,3.536999822E-1,9.820000082E-2
1.002558438E1,5.570000038E-2,3.735999763E-1,3.480000049E-2
1.003551094E1,1.099999994E-3,3.238999844E-1,-7.199999876E-3
1.004543750E1,-5.599999800E-2,2.836000025E-1,-5.339999869E-2
1.005536250E1,-4.609999806E-2,3.005999923E-1,-1.015999988E-1
1.006528906E1,3.039999865E-2,2.874000072E-1,-3.159999847E-2
1.007521562E1,3.619999811E-2,2.255999893E-1,-4.299999774E-2
1.008514219E1,-6.999999750E-3,2.326999903E-1,-3.759999946E-2
1.009506875E1,1.199999941E-3,1.806999892E-1,-8.519999683E-2
1.010499531E1,-7.919999957E-2,1.591999978E-1,-7.599999756E-2
1.011492031E1,-6.390000135E-2,1.473999918E-1,-3.329999745E-2
1.012484688E1,-3.879999742E-2,1.469999999E-1,5.379999802E-2
1.013477344E1,-1.549999975E-2,2.263000011E-1,1.206999943E-1
1.014470000E1,1.740000024E-2,2.393999994E-1,1.715999991E-1
1.015462656E1,4.490000010E-2,2.408999950E-1,1.049999986E-2
1.016455156E1,-3.969999775E-2,2.520999908E-1,-2.669999935E-2
1.017447969E1,8.209999651E-2,3.401999772E-1,-2.789999917E-2
1.018440469E1,3.799999831E-3,3.206999898E-1,4.789999872E-2
1.019433125E1,2.159999870E-2,3.583000004E-1,4.889999703E-2
1.020425781E1,3.350000083E-2,3.594000041E-1,8.249999583E-2
1.021418438E1,-4.649999738E-2,3.527999818E-1,1.661999971E-1
1.022411094E1,-6.129999831E-2,4.450999796E-1,1.463999897E-1
1.023403750E1,5.099999718E-3,4.869999886E-1,1.052999943E-1
1.024396406E1,-5.460000038E-2,4.885999858E-1,-9.300000034E-3
1.025388906E1,-3.240000084E-2,5.187999606E-1,-1.620000042E-2
1.026381563E1,-1.519999932E-2,4.294999838E-1,1.559999958E-2
1.027374219E1,8.999999845E-4,3.184999824E-1,-6.499999762E-2
1.028366719E1,2.649999969E-2,3.150999844E-1,-6.189999729E-2
1.029359531E1,3.329999745E-2,3.231000006E-1,-3.009999916E-2
1.030352031E1,4.399999976E-2,4.010999799E-1,7.189999521E-2
1.031344844E1,-5.999999866E-2,4.019999802E-1,1.682000011E-1
1.032337344E1,2.799999900E-3,3.928000033E-1,3.249999881E-2
1.033330000E1,2.459999919E-2,3.346999884E-1,-7.799999788E-3
1.034322656E1,7.620000094E-2,3.549000025E-1,-1.679999940E-2
1.035315156E1,9.659999609E-2,3.862999976E-1,1.349999905E-1
1.036307969E1,3.309999779E-2,4.253999889E-1,1.156999990E-1
1.037300469E1,4.409999773E-2,3.865000010E-1,3.899999894E-3
1.038293125E1,-6.560000032E-2,3.267999887E-1,-9.279999882E-2
1.039285781E1,-9.389999509E-2,3.071999848E-1,-3.469999880E-2
1.040278438E1,-9.709999710E-2,2.931999862E-1,-8.940000087E-2
1.041271094E1,-7.449999452E-2,2.219000012E-1,-1.599999960E-3
1.042263594E1,-3.419999778E-2,2.119999975E-1,7.220000029E-2
1.043256250E1,-3.839999810E-2,1.650999933E-1,9.619999677E-2
1.044248906E1,-6.899999920E-3,1.666999906E-1,1.064999998E-1
1.045241562E1,-6.589999795E-2,1.798999906E-1,6.650000066E-2
1.046234219E1,-4.829999804E-2,1.807999909E-1,-5.749999732E-2
1.047226875E1,8.299999870E-3,1.789999902E-1,-1.215000004E-1
1.048219531E1,7.319999486E-2,2.463999987E-1,8.700000122E-3
1.049212031E1,1.173999980E-1,3.340999782E-1,9.950000048E-2
1.050204844E1,1.583999991E-1,3.340999782E-1,1.491999924E-1
1.051197500E1,6.929999590E-2,4.337999821E-1,9.519999474E-2
1.052190000E1,2.149999887E-2,3.490999937E-1,6.059999764E-2
1.053182656E1,-6.449999660E-2,3.893999755E-1,-1.199999941E-3
1.054175313E1,-3.299999982E-3,4.377999902E-1,-1.349999942E-2
1.055167969E1,-7.899999619E-3,4.461999834E-1,1.289999951E-2
1.056160469E1,-5.579999834E-2,3.492999971E-1,1.080999970E-1
1.057153125E1,2.630000003E-2,4.394999743E-1,1.636999995E-1
1.058145781E1,-4.039999843E-2,4.987999797E-1,2.080000006E-2
1.059138438E1,-4.919999838E-2,5.291999578E-1,1.109999977E-2
1.060131094E1,1.499999966E-2,5.496999621E-1,1.139999926E-2
1.061126250E1,3.909999877E-2,4.898999929E-1,3.099999949E-2
1.062116250E1,7.090000063E-2,4.865999818E-1,-9.599999525E-3
1.063108906E1,-5.099999718E-3,5.044000149E-1,-3.810000047E-2
1.064101563E1,-8.169999719E-2,4.438999891E-1,-2.689999901E-2
1.065094375E1,-6.069999933E-2,4.221999943E-1,-2.039999887E-2
1.066086875E1,-4.969999939E-2,4.416999817E-1,1.199999973E-1
1.067079531E1,-3.739999980E-2,4.018999934E-1,1.229999959E-2
1.068072188E1,2.119999938E-2,3.817999959E-1,-1.919999905E-2
1.069064688E1,3.159999847E-2,3.143999875E-1,8.159999549E-2
1.070057344E1,4.010000080E-2,3.166999817E-1,1.008000001E-1
1.071050000E1,-2.829999849E-2,3.553999960E-1,5.790000036E-2
1.072042656E1,-9.519999474E-2,2.694000006E-1,8.029999584E-2
1.073035312E1,4.799999762E-3,2.832999825E-1,1.019999981E-1
1.074027969E1,-2.879999951E-2,2.454999983E-1,3.839999810E-2
1.075020625E1,-9.399999864E-3,1.770000011E-1,4.999999655E-4
1.076013125E1,-3.199999919E-3,1.958999932E-1,-7.919999957E-2
1.077005781E1,1.889999956E-2,1.947999895E-1,-2.009999938E-2
1.077998438E1,7.629999518E-2,1.829999983E-1,1.079999935E-2
1.078991094E1,7.099999487E-2,1.815999895E-1,1.529999916E-2
1.079983750E1,5.379999802E-2,2.198999971E-1,2.369999886E-2
1.080976406E1,7.419999689E-2,2.617000043E-1,1.100999936E-1
1.081969063E1,4.339999706E-2,1.949999928E-1,8.720000088E-2
1.082961562E1,-2.889999934E-2,2.158999890E-1,4.309999943E-2
1.083954219E1,-1.319999993E-2,2.055999935E-1,-6.839999557E-2
1.084946875E1,-4.659999907E-2,2.038999945E-1,-1.184000000E-1
1.085939531E1,-5.699999630E-3,2.409999967E-1,-5.699999630E-3
1.086932188E1,-9.999999776E-3,2.395000011E-1,5.139999837E-2
1.087924688E1,5.499999970E-2,2.374999970E-1,7.999999449E-3
1.088917344E1,4.539999738E-2,3.247999847E-1,-1.960000023E-2
1.089910000E1,3.610000014E-2,2.964999974E-1,2.539999969E-2
1.090902656E1,-2.449999936E-2,2.956999838E-1,-3.299999982E-3
1.091895312E1,-3.799999878E-2,3.322999775E-1,-4.809999838E-2
1.092887969E1,-2.649999969E-2,3.901999891E-1,1.260000002E-2
1.093880625E1,-3.089999966E-2,3.910999894E-1,7.880000025E-2
1.094873125E1,-2.969999984E-2,3.628999889E-1,1.412999928E-1
1.095865781E1,-7.569999993E-2,3.260000050E-1,1.331999898E-1
1.096858438E1,-8.659999818E-2,3.493999839E-1,9.809999913E-2
1.097851094E1,-1.056999937E-1,3.829999864E-1,9.389999509E-2
1.098843750E1,-8.569999784E-2,3.968999982E-1,1.132999957E-1
1.099836406E1,-5.779999867E-2,3.981999755E-1,1.789999940E-2
1.100829062E1,-1.799999969E-3,3.978999853E-1,-2.429999970E-2
1.101821562E1,3.079999983E-2,5.126000047E-1,-1.092999950E-1
1.102814219E1,1.021999940E-1,4.801999927E-1,-2.279999852E-2
1.103806875E1,1.273999959E-1,4.981999993E-1,1.352999955E-1
1.104799531E1,1.061999947E-1,4.281999767E-1,5.689999834E-2
1.105792188E1,7.889999449E-2,4.181999862E-1,6.529999524E-2
1.106784844E1,2.979999967E-2,3.808999956E-1,2.309999987E-2
1.107777500E1,-1.459999941E-2,4.409999847E-1,2.899999917E-2
1.108770000E1,-4.820000008E-2,4.312999845E-1,1.062999964E-1
1.109762656E1,-2.099999972E-2,3.827999830E-1,4.109999910E-2
1.110755312E1,-1.769999973E-2,4.023000002E-1,1.319999993E-2
1.111747969E1,2.520000003E-2,3.813000023E-1,-6.009999663E-2
1.112740625E1,2.329999954E-2,3.190999925E-1,-1.384999901E-1
1.113733281E1,-1.799999969E-3,3.350999951E-1,-3.599999845E-2
1.114725938E1,4.100000020E-3,3.637999892E-1,1.005999967E-1
1.115718438E1,-9.399999864E-3,2.657999992E-1,1.103999987E-1
1.116711094E1,-5.699999630E-3,2.953999937E-1,3.869999945E-2
1.117703750E1,-4.140000045E-2,3.472999930E-1,6.209999695E-2
1.118696406E1,-9.510000050E-2,2.511999905E-1,2.029999904E-2
1.119689062E1,-7.639999688E-2,3.416000009E-1,1.344999969E-1
1.120681719E1,-9.730000049E-2,3.423999846E-1,5.949999765E-2
1.121674375E1,-1.209999993E-2,3.738999963E-1,3.999999911E-2
1.122666875E1,1.289999951E-2,2.879999876E-1,8.489999920E-2
1.123659531E1,1.155999973E-1,3.276999891E-1,-1.150000002E-2
1.124652188E1,1.009999961E-2,2.759000063E-1,-5.130000040E-2
1.125644844E1,6.239999831E-2,2.636999786E-1,-6.740000099E-2
1.126637500E1,5.359999835E-2,2.717999816E-1,-2.070000023E-2
1.127630156E1,1.109999977E-2,2.696999907E-1,4.289999977E-2
1.128622656E1,-2.600000007E-3,2.590000033E-1,3.370000049E-2
1.129615312E1,-5.549999699E-2,2.689999938E-1,3.179999813E-2
1.130607969E1,-5.790000036E-2,2.791000009E-1,-9.999999311E-4
1.131600625E1,-1.319999993E-2,2.194999903E-1,-3.949999809E-2
1.132593281E1,-4.910000041E-2,2.476999909E-1,-1.289999951E-2
1.133585781E1,-3.790000081E-2,2.881000042E-1,1.114999950E-1
1.134578438E1,-2.639999986E-2,2.488999963E-1,3.469999880E-2
1.135571094E1,9.169999510E-2,2.883999944E-1,3.889999911E-2
1.136563750E1,7.019999623E-2,3.197999895E-1,7.279999554E-2
1.137556406E1,5.519999936E-2,3.199000061E-1,-3.759999946E-2
1.138549063E1,-3.460000083E-2,2.588999867E-1,-2.329999954E-2
1.139541719E1,-3.029999882E-2,3.567000031E-1,1.939999871E-2
1.140534375E1,2.840000018E-2,3.562999964E-1,2.419999987E-2
1.141526875E1,9.769999981E-2,2.971999943E-1,9.449999779E-2
1.142519531E1,1.042999998E-1,3.474999964E-1,6.019999832E-2
1.143512188E1,-3.629999980E-2,3.887999952E-1,8.500000089E-2
1.144504844E1,-1.089999974E-1,3.307999969E-1,2.609999850E-2
1.145497344E1,-7.620000094E-2,3.407999873E-1,-1.529999916E-2
1.146490000E1,-3.790000081E-2,3.104999959E-1,3.999999724E-3
1.147482656E1,-3.700000001E-3,2.304999977E-1,-6.350000203E-2
1.148475469E1,-8.089999855E-2,2.188999951E-1,-1.019999944E-2
1.149467969E1,-1.127999946E-1,2.460999936E-1,-5.759999901E-2
1.150460625E1,-2.002999932E-1,2.242999971E-1,-1.055999994E-1
1.151453281E1,-1.388999969E-1,2.719999850E-1,-3.049999848E-2
1.152445781E1,-6.289999932E-2,4.004999995E-1,4.619999975E-2
1.153438438E1,8.209999651E-2,4.903999865E-1,2.116999924E-1
1.154431094E1,2.131999880E-1,5.128999949E-1,2.471999973E-1
1.155423750E1,1.730999947E-1,6.330999732E-1,1.167999953E-1
1.156416406E1,1.606999934E-1,5.648999810E-1,-4.010000080E-2
1.157409062E1,2.432999909E-1,4.663999975E-1,-8.209999651E-2
1.158401719E1,3.067999780E-1,4.689999819E-1,1.715999991E-1
1.159394219E1,1.753000021E-1,3.628999889E-1,1.574999988E-1
1.160386875E1,-3.720000014E-2,3.928000033E-1,1.759999990E-2
1.161379531E1,-1.252999902E-1,4.253999889E-1,5.590000004E-2
1.162372344E1,-1.150999963E-1,3.305999935E-1,3.370000049E-2
1.163364844E1,-1.070000008E-1,2.490999997E-1,1.099999994E-2
1.164357500E1,-5.629999936E-2,3.448999822E-1,4.519999772E-2
1.165350000E1,2.709999867E-2,2.669999897E-1,-1.799999969E-3
1.166342656E1,-1.450999975E-1,2.448999882E-1,-7.660000026E-2
1.167335312E1,-1.506000012E-1,2.611999810E-1,-7.109999657E-2
1.168327969E1,-1.085999981E-1,2.073999941E-1,-1.695999950E-1
1.169320625E1,-6.030000001E-2,1.472000033E-1,5.619999766E-2
1.170313125E1,7.299999706E-3,2.155999988E-1,9.459999949E-2
1.171305781E1,-4.189999774E-2,1.666999906E-1,3.669999912E-2
1.172298438E1,2.099999972E-2,2.254000008E-1,8.700000122E-3
1.173291094E1,5.460000038E-2,1.878999919E-1,-3.599999845E-2
1.174283750E1,2.520000003E-2,2.654999793E-1,1.260000002E-2
1.175276406E1,8.240000159E-2,2.733999789E-1,-4.699999932E-3
1.176269063E1,1.109999940E-1,2.140999883E-1,3.700000048E-2
1.177261562E1,1.218999997E-1,2.448999882E-1,9.669999778E-2
1.178254219E1,1.231999993E-1,2.371999919E-1,8.259999752E-2
1.179246875E1,2.410000004E-2,2.479999959E-1,2.569999918E-2
1.180239531E1,-6.999999750E-4,2.511000037E-1,8.909999579E-2
1.181232188E1,-3.379999846E-2,2.538999915E-1,8.669999987E-2
1.182224844E1,-9.730000049E-2,2.026999891E-1,-9.719999880E-2
1.183217500E1,-7.859999686E-2,2.786999941E-1,-7.189999521E-2
1.184210000E1,-1.307999939E-1,2.761999965E-1,-1.036999971E-1
1.185202656E1,-1.084999964E-1,2.338999957E-1,-3.439999744E-2
1.186195313E1,-7.050000131E-2,2.804999948E-1,5.119999871E-2
1.187187969E1,-2.439999953E-2,3.204999864E-1,7.289999723E-2
1.188180625E1,2.969999984E-2,3.704999983E-1,7.279999554E-2
1.189173281E1,-2.969999984E-2,4.221999943E-1,1.076999977E-1
1.190165938E1,6.059999764E-2,4.236999750E-1,5.659999698E-2
1.191158438E1,9.690000117E-2,4.149999917E-1,6.729999930E-2
1.192151094E1,1.239999980E-1,3.973999918E-1,1.088999957E-1
1.193143750E1,4.250000045E-2,3.691999912E-1,3.500000015E-2
1.194136406E1,4.629999772E-2,2.919999957E-1,7.050000131E-2
1.195129062E1,4.529999942E-2,2.624999881E-1,-4.419999942E-2
1.196121719E1,2.819999866E-2,3.673000038E-1,-1.445999891E-1
1.197114375E1,-6.260000169E-2,3.737999797E-1,-4.649999738E-2
1.198106875E1,6.399999838E-3,4.420000017E-1,7.789999992E-2
1.199099531E1,-5.669999868E-2,3.999999762E-1,1.539999992E-2
1.200092188E1,-5.959999934E-2,3.583999872E-1,-4.309999943E-2
1.201084844E1,-1.043999940E-1,3.689999878E-1,1.429999992E-2
1.202077500E1,-1.054999977E-1,3.127000034E-1,1.482999921E-1
1.203070156E1,-6.189999729E-2,3.231999874E-1,1.133999974E-1
1.204062813E1,-2.539999969E-2,2.876999974E-1,1.683000028E-1
1.205055312E1,6.659999490E-2,3.613999784E-1,1.176999956E-1
1.206047969E1,2.114999890E-1,3.393999934E-1,2.282999903E-1
1.207040625E1,3.590000048E-2,3.806999922E-1,5.769999698E-2
1.208033281E1,3.920000046E-2,4.213999808E-1,-2.620000020E-2
1.209025938E1,-6.599999964E-2,3.522000015E-1,-3.929999843E-2
1.210018594E1,-2.699999837E-3,3.508999944E-1,-5.590000004E-2
1.211011094E1,1.989999972E-2,3.449999988E-1,-5.279999971E-2
1.212003750E1,7.750000060E-2,2.724999785E-1,-6.819999963E-2
1.212996406E1,1.353999972E-1,3.589999974E-1,2.499999944E-3
1.213989063E1,8.779999614E-2,2.809000015E-1,9.169999510E-2
1.214981719E1,1.589999907E-2,3.084000051E-1,-3.909999877E-2
1.215974375E1,-6.219999865E-2,3.376999795E-1,2.339999937E-2
1.216967031E1,-8.799999952E-2,3.188999891E-1,4.039999843E-2
1.217959531E1,-1.208999977E-1,2.903999984E-1,8.299999684E-2
1.218952188E1,-1.226999983E-1,2.888000011E-1,2.960000001E-2
1.219944844E1,-5.939999968E-2,2.395000011E-1,-6.570000201E-2
1.220937500E1,3.429999948E-2,2.778999805E-1,-3.570000082E-2
1.221930156E1,3.399999812E-2,2.593999803E-1,9.899999946E-2
1.222922812E1,4.699999932E-3,2.304999977E-1,1.217999980E-1
1.223915469E1,-6.199999899E-2,3.104999959E-1,1.030999944E-1
1.224907969E1,3.839999810E-2,2.928999960E-1,1.069999952E-2
1.225900625E1,3.649999946E-2,2.361999899E-1,-3.000000026E-3
1.226893281E1,4.849999771E-2,1.574999988E-1,8.599999361E-3
1.227885938E1,3.499999875E-3,2.340999991E-1,-2.919999883E-2
1.228878594E1,-2.339999937E-2,2.725999951E-1,3.830000013E-2
1.229871250E1,-4.919999838E-2,2.351000011E-1,9.679999948E-2
1.230863906E1,-4.199999850E-3,2.456000000E-1,4.030000046E-2
1.231856406E1,9.989999980E-2,2.651999891E-1,2.070000023E-2
1.232849062E1,6.309999526E-2,2.534999847E-1,-1.344999969E-1
1.233841719E1,2.029999904E-2,3.292999864E-1,-9.339999408E-2
1.234834375E1,3.089999966E-2,2.669000030E-1,-3.929999843E-2
1.235827031E1,-2.950000018E-2,2.342999876E-1,-3.680000082E-2
1.236819531E1,-2.199999988E-3,2.583000064E-1,-1.489000022E-1
1.237812188E1,-2.989999950E-2,3.343999982E-1,-8.399999887E-2
1.238804844E1,-7.159999758E-2,3.310999870E-1,-1.108999997E-1
1.239797500E1,-7.299999706E-3,3.892000020E-1,1.255999953E-1
1.240790156E1,-1.730000041E-2,4.005999863E-1,2.561999857E-1
1.241782813E1,-3.579999879E-2,4.263999760E-1,3.288999796E-1
1.242775469E1,-4.639999941E-2,5.115000010E-1,2.413999885E-1
1.243768125E1,-1.519999932E-2,4.310999811E-1,9.849999845E-2
1.244760625E1,-9.129999578E-2,4.477999806E-1,1.343999952E-1
1.245753281E1,-9.489999712E-2,3.841999769E-1,1.067999974E-1
1.246745938E1,-1.889999956E-2,3.464999795E-1,7.400000095E-2
1.247738594E1,6.999999750E-4,3.183999956E-1,4.270000011E-2
1.248731250E1,-2.329999954E-2,2.903999984E-1,-1.679999940E-2
1.249723906E1,2.850000001E-2,2.592000067E-1,-3.940000013E-2
1.250716406E1,2.950000018E-2,2.364999950E-1,-4.160000011E-2
1.251709063E1,8.549999446E-2,1.824999899E-1,-1.209999993E-1
1.252701719E1,8.829999715E-2,2.475999892E-1,-2.719999850E-2
1.253694375E1,5.189999938E-2,2.766000032E-1,1.019999981E-1
1.254687031E1,3.299999982E-3,1.979999989E-1,6.379999965E-2
1.255679688E1,-3.559999913E-2,2.719999850E-1,-1.604000032E-1
1.256672344E1,-6.929999590E-2,2.762999833E-1,-2.998999953E-1
1.257664844E1,3.059999831E-2,2.233999968E-1,-1.132999957E-1
1.258657500E1,6.409999728E-2,2.793000042E-1,1.032999977E-1
1.259650156E1,1.299999934E-2,3.445000052E-1,6.669999659E-2
1.260642812E1,-6.560000032E-2,3.351999819E-1,8.769999444E-2
1.261635469E1,-1.052000001E-1,2.906000018E-1,9.399999678E-2
1.262628125E1,-1.241999939E-1,2.834999859E-1,5.099999905E-2
1.263620625E1,-8.460000157E-2,2.962999940E-1,1.858000010E-1
1.264613281E1,5.009999871E-2,3.222999871E-1,2.390999943E-1
1.265605938E1,1.525999904E-1,4.180999994E-1,2.515999973E-1
1.266598594E1,1.339000016E-1,5.285999775E-1,2.379999869E-2
1.267591250E1,7.669999450E-2,5.927000046E-1,8.739999682E-2
1.268583750E1,9.149999917E-2,5.665999651E-1,1.042999998E-1
1.269576406E1,1.062999964E-1,5.550999641E-1,-2.359999903E-2
1.270569062E1,3.689999878E-2,5.000000000E-1,-1.004999951E-1
1.271561719E1,8.349999785E-2,4.079999924E-1,-1.761000007E-1
1.272554375E1,1.699999906E-3,4.221999943E-1,-1.041999981E-1
1.273547031E1,-3.819999844E-2,3.289999962E-1,2.219999954E-2
1.274539688E1,-8.899999410E-2,3.449999988E-1,1.319999993E-2
1.275532344E1,-7.050000131E-2,3.132999837E-1,-1.979999989E-2
1.276524844E1,-6.019999832E-2,3.617999852E-1,-6.699999794E-3
1.277517500E1,-8.729999512E-2,2.735999823E-1,2.850000001E-2
1.278510156E1,-2.149999887E-2,3.834999800E-1,2.069999874E-1
1.279502812E1,6.889999658E-2,3.269999921E-1,1.294000000E-1
1.280495312E1,5.339999869E-2,3.802999854E-1,1.384000033E-1
1.281488125E1,-1.319999993E-2,3.950999975E-1,1.216999963E-1
1.282480781E1,2.300000004E-2,4.369999766E-1,-3.599999938E-3
1.283473438E1,-7.919999957E-2,3.165999949E-1,-8.289999515E-2
1.284466094E1,-6.260000169E-2,2.754999995E-1,-6.340000033E-2
1.285458594E1,2.529999986E-2,2.739999890E-1,2.209999971E-2
1.286451250E1,6.099999696E-2,2.430999875E-1,7.769999653E-2
1.287443906E1,6.700000167E-2,2.735999823E-1,1.145999953E-1
1.288436406E1,2.630000003E-2,2.470999956E-1,8.309999853E-2
1.289429062E1,1.919999905E-2,2.870999873E-1,-4.179999977E-2
1.290421719E1,-4.729999974E-2,3.547999859E-1,-5.059999973E-2
1.291414375E1,-1.219999976E-2,2.845000029E-1,-3.289999813E-2
1.292406875E1,-2.819999866E-2,3.021999896E-1,1.769999973E-2
1.293399688E1,3.649999946E-2,2.204999924E-1,-3.299999982E-2
1.294392344E1,-1.090000011E-2,1.806999892E-1,1.219999976E-2
1.295384844E1,-2.869999968E-2,2.388999909E-1,-9.399999864E-3
1.296377500E1,-6.049999967E-2,2.574000061E-1,-1.599999890E-2
1.297370156E1,-1.740000024E-2,2.293999940E-1,1.440999955E-1
1.298362813E1,-1.589999907E-2,1.935999990E-1,1.428999901E-1
1.299355469E1,-2.219999954E-2,2.333999872E-1,8.599999361E-3
1.300348125E1,7.409999520E-2,2.736999989E-1,-4.100000020E-3
1.301340781E1,4.519999772E-2,2.572000027E-1,4.969999939E-2
1.302333281E1,7.319999486E-2,2.674999833E-1,7.400000095E-2
1.303326094E1,8.899999782E-3,3.235999942E-1,-3.249999881E-2
1.304318750E1,-1.999999862E-3,3.726999760E-1,-2.600000007E-3
1.305311250E1,-9.899999946E-3,3.122999966E-1,-8.299999684E-2
1.306303906E1,2.960000001E-2,3.301999867E-1,1.549999975E-2
1.307296562E1,-9.800000116E-3,2.888000011E-1,4.050000012E-2
1.308289219E1,5.899999756E-3,3.100999892E-1,1.096999943E-1
1.309281875E1,-5.909999833E-2,3.589999974E-1,4.089999944E-2
1.310274375E1,-5.559999868E-2,3.203999996E-1,-2.520000003E-2
1.311267031E1,-7.239999622E-2,3.300999999E-1,1.389999967E-2
1.312259688E1,-7.329999655E-2,3.107999861E-1,3.009999916E-2
1.313252344E1,2.999999933E-2,3.564999998E-1,-6.679999828E-2
1.314244844E1,5.370000005E-2,3.355000019E-1,-1.099999994E-3
1.315237500E1,1.014999971E-1,3.755999804E-1,7.669999450E-2
1.316230313E1,5.529999733E-2,3.376999795E-1,1.286000013E-1
1.317222812E1,3.099999949E-2,3.009999990E-1,1.785999984E-1
1.318215469E1,-2.539999969E-2,3.840999901E-1,1.165999994E-1
1.319208125E1,-6.679999828E-2,4.391999841E-1,1.702999920E-1
1.320200781E1,-8.559999615E-2,4.703999758E-1,4.100000020E-3
1.321193281E1,-9.879999608E-2,3.824999928E-1,-1.860000007E-2
1.322186094E1,-2.149999887E-2,3.210999966E-1,-7.069999725E-2
1.323178594E1,7.660000026E-2,3.055999875E-1,-2.065999955E-1
1.324171250E1,1.225999966E-1,3.093999922E-1,-6.069999933E-2
1.325163906E1,7.459999621E-2,3.256999850E-1,-2.129999921E-2
1.326156406E1,1.289999951E-2,3.718000054E-1,1.649999991E-2
1.327149062E1,-9.800000116E-3,3.504000008E-1,3.199999779E-2
1.328141719E1,-5.289999768E-2,4.402999878E-1,6.839999557E-2
1.329134375E1,-7.349999994E-2,4.629999995E-1,2.040999979E-1
1.330127031E1,5.399999768E-2,4.386000037E-1,2.421999872E-1
1.331119688E1,1.277000010E-1,4.833000004E-1,1.823999882E-1
1.332112344E1,4.809999838E-2,5.676999688E-1,1.307999939E-1
1.333104844E1,4.349999875E-2,5.085999966E-1,2.372999936E-1
1.334097500E1,-4.529999942E-2,5.799999833E-1,4.669999704E-2
1.335090312E1,-1.209999993E-1,5.098000169E-1,-3.929999843E-2
1.336082813E1,-1.357000023E-1,4.775999784E-1,-8.449999988E-2
1.337075469E1,-7.090000063E-2,4.041999876E-1,-1.574999988E-1
1.338068281E1,-4.739999771E-2,3.564999998E-1,-9.869999439E-2
1.339060781E1,2.249999903E-2,3.337000012E-1,4.429999739E-2
1.340053438E1,-3.070000000E-2,3.314999938E-1,2.259999886E-2
1.341045938E1,1.069999952E-2,4.084999859E-1,3.869999945E-2
1.342038594E1,1.679999940E-2,3.393999934E-1,-1.529999916E-2
1.343031250E1,4.089999944E-2,3.529999852E-1,1.748999953E-1
1.344023906E1,5.099999905E-2,4.129999876E-1,1.121999994E-1
1.345016562E1,3.619999811E-2,3.763999939E-1,1.123999953E-1
1.346009219E1,1.002999991E-1,3.484999835E-1,1.769999973E-2
1.347001875E1,5.229999870E-2,2.636999786E-1,2.159999870E-2
1.347994375E1,7.090000063E-2,2.926999927E-1,4.739999771E-2
1.348987031E1,5.189999938E-2,2.140999883E-1,1.999999862E-3
1.349979688E1,1.719999872E-2,3.179000020E-1,-1.282999963E-1
1.350972344E1,-2.039999887E-2,1.889999956E-1,-3.559999913E-2
1.351965000E1,-5.419999734E-2,1.477999985E-1,-4.900000058E-3
1.352957500E1,-9.429999441E-2,1.647000015E-1,3.799999831E-3
1.353950156E1,-5.579999834E-2,1.420999914E-1,-2.349999920E-2
1.354942812E1,2.499999944E-3,1.322000027E-1,-5.199999735E-2
1.355935469E1,-4.099999741E-2,1.812999994E-1,5.389999971E-2
1.356928125E1,-3.929999843E-2,1.428999901E-1,9.329999983E-2
1.357920781E1,-3.159999847E-2,1.732999980E-1,7.220000029E-2
1.358913281E1,-1.409999933E-2,2.044999897E-1,4.230000079E-2
1.359905938E1,2.479999885E-2,1.957999915E-1,-3.859999776E-2
1.360898594E1,5.249999836E-2,1.550000012E-1,-7.090000063E-2
1.361891250E1,3.709999844E-2,1.322999895E-1,-8.379999548E-2
1.362883906E1,5.899999756E-3,1.310999990E-1,2.889999934E-2
1.363876563E1,-5.879999697E-2,1.590999961E-1,2.589999884E-2
1.364869219E1,-7.279999554E-2,1.770000011E-1,-4.919999838E-2
1.365861875E1,-4.169999808E-2,2.046999931E-1,-6.639999896E-2
1.366854375E1,-2.070000023E-2,2.655999959E-1,1.048999950E-1
1.367847031E1,-1.159999985E-2,3.545999825E-1,1.164999977E-1
1.368839688E1,9.640000015E-2,4.143999815E-1,1.131999940E-1
1.369832344E1,6.350000203E-2,4.384000003E-1,1.763999909E-1
1.370825000E1,1.217999980E-1,4.733999968E-1,1.230999976E-1
1.371817656E1,9.829999506E-2,5.360000134E-1,1.534999907E-1
1.372810156E1,8.540000021E-2,5.130000114E-1,2.205999941E-1
1.373802813E1,2.300000051E-3,6.338999867E-1,4.419999942E-2
1.374795469E1,4.939999804E-2,5.580999851E-1,8.299999684E-2
1.375788125E1,4.699999932E-3,5.011000037E-1,4.710000008E-2
1.376780781E1,3.429999948E-2,4.607999921E-1,-2.999999933E-2
1.377773438E1,-4.699999839E-2,4.958999753E-1,6.300000008E-3
1.378765938E1,-7.549999654E-2,4.946999848E-1,-3.099999856E-3
1.379758750E1,-7.339999825E-2,4.621999860E-1,3.199999919E-3
1.380751250E1,-3.329999745E-2,4.195999801E-1,-1.370000001E-2
1.381743906E1,-2.919999883E-2,3.203999996E-1,2.439999953E-2
1.382736562E1,-3.009999916E-2,3.686999977E-1,4.140000045E-2
1.383729219E1,-1.090000011E-2,3.763999939E-1,-3.429999948E-2
1.384721719E1,8.599999361E-3,3.353999853E-1,-1.579999924E-2
1.385714375E1,1.229999959E-2,3.332999945E-1,-6.140000001E-2
1.386707031E1,2.620000020E-2,3.014000058E-1,-2.349999920E-2
1.387699688E1,-7.809999585E-2,3.089999855E-1,2.149999887E-2
1.388692344E1,-2.131000012E-1,3.371999860E-1,-1.090000011E-2
1.389685000E1,-1.105999947E-1,3.288999796E-1,1.406999975E-1
1.390677500E1,-5.900000036E-2,3.109000027E-1,4.869999737E-2
1.391670313E1,4.179999977E-2,3.120000064E-1,2.180000022E-2
1.392662812E1,1.383000016E-1,2.739000022E-1,6.489999592E-2
1.393655469E1,1.777999997E-1,3.744999766E-1,9.629999846E-2
1.394648125E1,1.049999967E-1,3.556999862E-1,1.146999970E-1
1.395640781E1,-1.500000013E-3,3.975999951E-1,1.056999937E-1
1.396633438E1,-2.399999881E-3,3.601000011E-1,9.200000204E-3
1.397625938E1,-1.979999989E-2,2.604999840E-1,-1.017000005E-1
1.398618594E1,-3.819999844E-2,2.491999865E-1,-1.840000041E-2
1.399611250E1,-1.475999951E-1,1.580999941E-1,-4.679999873E-2
1.400603906E1,-3.409999982E-2,1.560000032E-1,2.639999986E-2
1.401596563E1,-1.074000001E-1,1.166999936E-1,5.949999765E-2
1.402589219E1,-4.910000041E-2,1.779000014E-1,5.669999868E-2
1.403581875E1,8.429999650E-2,1.493999958E-1,4.729999974E-2
1.404574375E1,1.063999981E-1,2.087000012E-1,-1.030000020E-2
1.405567031E1,1.519999951E-1,2.083999962E-1,-9.499999695E-3
1.406559688E1,1.512999982E-1,2.167999893E-1,-2.569999918E-2
1.407552344E1,9.389999509E-2,2.739999890E-1,-3.240000084E-2
1.408545000E1,2.829999849E-2,2.802999914E-1,-9.600000083E-2
1.409537656E1,-8.329999447E-2,2.370999902E-1,-1.341999918E-1
1.410530156E1,-1.821999997E-1,2.247999907E-1,1.040000003E-2
1.411522813E1,-2.779999934E-2,3.589999974E-1,-2.960000001E-2
1.412515469E1,9.549999982E-2,2.393999994E-1,1.630000025E-2
1.413508125E1,5.599999800E-2,2.594999969E-1,7.719999552E-2
1.414500781E1,5.200000014E-3,3.709000051E-1,1.572999954E-1
1.415493438E1,-1.257999986E-1,4.523999989E-1,2.053999901E-1
1.416485938E1,-1.048000008E-1,5.586000085E-1,3.246999979E-1
1.417478594E1,-5.359999835E-2,5.862999558E-1,2.274999917E-1
1.418471250E1,-3.799999878E-2,6.046999693E-1,1.938999891E-1
1.419463906E1,4.339999706E-2,5.135999918E-1,1.318999976E-1
1.420456562E1,-3.139999881E-2,5.855999589E-1,1.459999941E-2
1.421449219E1,-2.740000002E-2,4.079999924E-1,3.999999724E-3
1.422441719E1,1.030000020E-2,2.985999882E-1,-3.119999915E-2
1.423434375E1,5.269999802E-2,2.554999888E-1,-5.680000037E-2
1.424427031E1,8.879999816E-2,1.516999900E-1,-1.023999974E-1
1.425419688E1,9.200000018E-2,7.589999586E-2,-2.189999968E-1
1.426412344E1,7.119999826E-2,9.030000120E-2,-8.500000089E-2
1.427404844E1,1.010999978E-1,1.058999971E-1,-3.610000014E-2
1.428397500E1,1.344999969E-1,4.239999875E-2,-1.010999978E-1
1.429390156E1,1.999999881E-1,1.588999927E-1,8.700000122E-3
1.430382812E1,1.132999957E-1,2.400999963E-1,6.089999899E-2
1.431375469E1,2.109999955E-2,3.005000055E-1,7.629999518E-2
1.432368125E1,-1.084999964E-1,3.680000007E-1,-6.099999882E-3
1.433360781E1,-1.481999904E-1,3.986999989E-1,6.489999592E-2
1.434353438E1,-1.490999907E-1,4.281999767E-1,9.160000086E-2
1.435345938E1,-1.432999969E-1,4.296000004E-1,1.764999926E-1
1.436338594E1,-1.027999967E-1,3.923999965E-1,1.539999992E-1
1.437331250E1,-8.139999956E-2,4.271999896E-1,1.423999965E-1
1.438323906E1,-3.579999879E-2,4.496999979E-1,4.470000044E-2
1.439316563E1,1.829999872E-2,3.937999904E-1,5.499999970E-2
1.440309219E1,9.160000086E-2,3.740999997E-1,1.630000025E-2
1.441301719E1,1.026000008E-1,3.524999917E-1,-5.219999701E-2
1.442294375E1,1.081999987E-1,3.601999879E-1,9.999999747E-5
1.443287031E1,2.689999901E-2,3.592999876E-1,1.799999969E-3
1.444279688E1,7.339999825E-2,3.562999964E-1,-4.939999804E-2
1.445272344E1,1.278000027E-1,3.341999948E-1,-4.360000044E-2
1.446265000E1,9.169999510E-2,3.046999872E-1,1.420000009E-2
1.447257656E1,9.499999695E-3,3.115999997E-1,-6.639999896E-2
1.448250313E1,-1.349999942E-2,2.802000046E-1,-1.579999924E-2
1.449242813E1,-1.219999976E-2,1.897999942E-1,-7.429999858E-2
1.450235625E1,-3.269999847E-2,2.554999888E-1,-8.039999753E-2
1.451228125E1,-4.529999942E-2,2.832999825E-1,8.949999511E-2
1.452220781E1,-2.389999852E-2,3.349999785E-1,2.069999874E-1
1.453213438E1,-4.100000020E-3,3.680999875E-1,2.276999950E-1
1.454206094E1,-4.699999839E-2,4.804999828E-1,1.583999991E-1
1.455198594E1,-1.244999990E-1,4.095999897E-1,1.688999981E-1
1.456191250E1,-1.238999963E-1,3.765999973E-1,1.421999931E-1
1.457183906E1,-9.039999545E-2,4.068000019E-1,-5.200000014E-3
1.458176563E1,-1.349999942E-2,3.481999934E-1,1.169999968E-2
1.459169219E1,-3.649999946E-2,3.594999909E-1,3.700000048E-2
1.460161875E1,6.379999965E-2,3.282999992E-1,-4.900000058E-3
1.461154531E1,5.659999698E-2,3.240999877E-1,-4.309999943E-2
1.462147031E1,4.549999908E-2,2.615999877E-1,-1.338000000E-1
1.463139688E1,4.999999655E-4,2.663999796E-1,-1.392000020E-1
1.464132344E1,-6.399999559E-2,1.213999987E-1,-2.069999874E-1
1.465125000E1,-9.300000034E-3,2.043000013E-1,-7.129999995E-2
1.466117656E1,-1.699999906E-3,1.612000018E-1,-2.769999951E-2
1.467110312E1,7.880000025E-2,1.618999988E-1,1.674999893E-1
1.468102813E1,6.340000033E-2,2.717999816E-1,1.703999937E-1
1.469095469E1,-3.419999778E-2,3.659999967E-1,2.115999907E-1
1.470088281E1,5.499999970E-3,4.406999946E-1,1.806999892E-1
1.471080781E1,4.369999841E-2,3.898999989E-1,1.644999981E-1
1.472073438E1,-6.999999750E-3,4.912999868E-1,8.190000057E-2
1.473066094E1,-1.509999949E-2,4.922999740E-1,-2.719999850E-2
1.474058750E1,-9.989999980E-2,5.575999618E-1,-1.118000001E-1
1.475051250E1,4.939999804E-2,5.162999630E-1,-1.899999916E-3
1.476043906E1,1.880999953E-1,3.585000038E-1,1.262999922E-1
1.477036562E1,2.357999980E-1,3.400000036E-1,1.413999945E-1
1.478029219E1,8.410000056E-2,2.928999960E-1,6.969999522E-2
1.479021875E1,-1.056999937E-1,3.064000010E-1,9.399999864E-3
1.480014531E1,-2.193999887E-1,2.666999996E-1,-6.819999963E-2
1.481007188E1,-2.022999972E-1,2.219999880E-1,-1.218999997E-1
1.481999844E1,-1.068999991E-1,1.847999990E-1,-1.920999885E-1
1.482992344E1,-2.300000051E-3,2.101999968E-1,-3.790000081E-2
1.483985000E1,6.989999861E-2,1.586999893E-1,4.149999842E-2
1.484977656E1,6.439999491E-2,1.366999894E-1,-6.000000052E-3
1.485970313E1,2.359999903E-2,1.336999983E-1,-1.040999964E-1
1.486962812E1,-1.929999888E-2,1.523000002E-1,-1.085999981E-1
1.487955469E1,5.549999699E-2,1.206999943E-1,-5.739999935E-2
1.488948125E1,6.749999523E-2,1.665000021E-1,-4.619999975E-2
1.489940781E1,-1.079999935E-2,1.674000025E-1,1.858000010E-1
1.490933594E1,1.689999923E-2,2.195999920E-1,1.781999916E-1
1.491926094E1,-1.340999901E-1,2.926999927E-1,1.835999936E-1
1.492918750E1,-1.467999965E-1,2.699999809E-1,2.352999896E-1
1.493911406E1,-7.949999720E-2,3.278000057E-1,1.665999889E-1
1.494903906E1,-3.150000051E-2,3.716999888E-1,1.011999995E-1
1.495896563E1,5.179999769E-2,3.531999886E-1,-6.480000168E-2
1.496889219E1,9.939999878E-2,4.438000023E-1,6.629999727E-2
1.497881875E1,2.749999985E-2,4.143999815E-1,7.490000129E-2
1.498874531E1,8.599999361E-3,4.608999789E-1,-8.100000210E-3
1.499867188E1,9.300000034E-3,5.065000057E-1,-4.250000045E-2
1.500859688E1,1.799999969E-3,3.489999771E-1,-5.649999902E-2
1.501852344E1,7.499999832E-3,3.046000004E-1,-1.185999960E-1
1.502845000E1,-1.200000010E-2,3.493999839E-1,-1.200000010E-2
1.503837656E1,-1.989999972E-2,2.483000010E-1,-3.449999914E-2
1.504830312E1,-3.790000081E-2,2.578999996E-1,6.729999930E-2
1.505822969E1,-5.009999871E-2,2.775999904E-1,8.599999547E-2
1.506815625E1,-4.889999703E-2,3.792999983E-1,1.516000032E-1
1.507808125E1,-2.999999851E-4,4.315999746E-1,1.446999907E-1
1.508800781E1,-3.240000084E-2,3.768000007E-1,8.199999481E-2
1.509793438E1,6.560000032E-2,4.756999910E-1,3.999999724E-3
1.510786094E1,6.610000134E-2,4.775999784E-1,6.159999967E-2
1.511778750E1,3.549999744E-2,5.073999763E-1,7.589999586E-2
1.512771406E1,9.380000085E-2,4.689999819E-1,1.063999981E-1
1.513764063E1,4.659999907E-2,4.693999887E-1,6.329999864E-2
1.514756562E1,-1.799999969E-3,5.690000057E-1,3.849999979E-2
1.515749219E1,-4.710000008E-2,4.711000025E-1,3.649999946E-2
1.516741875E1,-8.489999920E-2,4.702000022E-1,5.699999630E-3
1.517734531E1,-3.309999779E-2,4.183999896E-1,-3.409999982E-2
1.518727031E1,-4.600000102E-3,4.560000002E-1,1.169999968E-2
1.519719688E1,-8.049999923E-2,4.078999758E-1,1.111999974E-1
1.520712344E1,5.399999674E-3,4.451999962E-1,-5.899999756E-3
1.521705000E1,-3.579999879E-2,2.875999808E-1,1.189999934E-2
1.522697656E1,-1.333999932E-1,3.154999912E-1,-9.479999542E-2
1.523690313E1,5.089999735E-2,3.425999880E-1,-6.849999726E-2
1.524682969E1,6.939999759E-2,3.197999895E-1,3.449999914E-2
1.525675469E1,7.970000058E-2,3.771999776E-1,1.119999960E-2
1.526668125E1,4.490000010E-2,2.861999869E-1,-2.510000020E-2
1.527660781E1,3.480000049E-2,2.951999903E-1,-1.769999973E-2
1.528653438E1,3.539999947E-2,2.958999872E-1,5.249999836E-2
1.529646094E1,4.769999906E-2,2.872000039E-1,1.368999928E-1
1.530638750E1,6.599999964E-2,3.200999796E-1,1.942999959E-1
1.531631406E1,5.709999800E-2,3.242999911E-1,1.181999967E-1
1.532623906E1,-3.099999856E-3,3.477999866E-1,4.809999838E-2
1.533616563E1,-1.850000024E-2,3.603000045E-1,3.059999831E-2
1.534609219E1,7.629999518E-2,2.838999927E-1,6.049999967E-2
1.535601875E1,-7.329999655E-2,3.331999779E-1,7.629999518E-2
1.536594531E1,1.090000011E-2,3.938999772E-1,1.156999990E-1
1.537587031E1,-4.019999877E-2,3.953000009E-1,4.259999841E-2
1.538579688E1,-5.819999799E-2,3.956999779E-1,-1.599999960E-3
1.539572344E1,-5.579999834E-2,3.662000000E-1,2.740000002E-2
1.540565000E1,-1.469999924E-2,3.940999806E-1,-1.709999889E-2
1.541557656E1,-5.599999800E-3,3.735999763E-1,7.019999623E-2
1.542550312E1,2.559999935E-2,3.325999975E-1,-1.999999955E-2
1.543542813E1,2.969999984E-2,2.827999890E-1,-2.899999963E-3
1.544535469E1,1.640000008E-2,2.307000011E-1,-6.949999928E-2
1.545528125E1,-5.099999718E-3,2.298000008E-1,-1.009999961E-2
1.546520938E1,-4.059999809E-2,2.173999995E-1,7.599999662E-3
1.547513594E1,-1.529999916E-2,2.161999941E-1,-8.399999700E-3
1.548506094E1,-3.920000046E-2,2.138999999E-1,-3.189999983E-2
1.549498750E1,-7.909999788E-2,2.339999974E-1,3.109999932E-2
1.550491406E1,-5.419999734E-2,2.549999952E-1,1.144999936E-1
1.551483906E1,4.179999977E-2,3.150999844E-1,9.119999409E-2
1.552476562E1,3.559999913E-2,3.668999970E-1,1.204999983E-1
1.553469219E1,2.379999869E-2,3.107999861E-1,3.309999779E-2
1.554461875E1,8.499999531E-3,3.619000018E-1,5.009999871E-2
1.555454531E1,2.489999868E-2,3.439999819E-1,1.013999954E-1
1.556447031E1,3.689999878E-2,3.841999769E-1,4.230000079E-2
1.557439688E1,1.169999968E-2,2.945999801E-1,-2.259999886E-2
1.558432344E1,1.989999972E-2,3.615999818E-1,-6.549999863E-2
1.559425000E1,4.019999877E-2,4.484999776E-1,-1.699999906E-3
1.560417656E1,1.310000010E-2,3.473999798E-1,8.999999845E-4
1.561410313E1,-6.399999838E-3,4.256999791E-1,1.193999946E-1
1.562402969E1,5.499999970E-3,2.897000015E-1,9.649999440E-2
1.563395469E1,9.699999355E-3,3.495000005E-1,8.499999531E-3
1.564388125E1,3.499999875E-3,3.382000029E-1,-6.469999999E-2
1.565380781E1,-2.799999900E-2,3.588999808E-1,4.179999977E-2
1.566373438E1,-7.970000058E-2,3.183999956E-1,3.519999981E-2
1.567366094E1,-1.615999937E-1,3.375000060E-1,8.889999986E-2
1.568358750E1,-1.853999943E-1,3.382999897E-1,4.569999874E-2
1.569351250E1,-9.109999985E-2,2.805999815E-1,-4.719999805E-2
1.570343906E1,-1.200000010E-2,3.674999774E-1,-3.610000014E-2
1.571336719E1,-3.260000050E-2,2.405999899E-1,3.489999846E-2
1.572329219E1,2.039999887E-2,2.902999818E-1,1.264999956E-1
1.573321875E1,1.018999964E-1,3.301999867E-1,1.208999977E-1
1.574314531E1,4.939999804E-2,3.614999950E-1,5.859999731E-2
1.575307188E1,5.799999833E-2,3.434000015E-1,0.000000000E0
1.576299844E1,-6.099999882E-3,3.716999888E-1,-5.069999769E-2
1.577292500E1,2.099999925E-3,4.185999930E-1,7.699999958E-3
1.578285156E1,-3.999999724E-3,4.530999959E-1,-9.820000082E-2
1.579277656E1,-2.960000001E-2,3.330999911E-1,6.099999882E-3
1.580270312E1,-3.610000014E-2,3.813999891E-1,6.529999524E-2
1.581262969E1,9.099999443E-3,3.339999914E-1,1.342999935E-1
1.582255625E1,1.889999956E-2,4.029999971E-1,9.119999409E-2
1.583248125E1,-9.380000085E-2,4.449999928E-1,2.559999935E-2
1.584240781E1,1.989999972E-2,3.978999853E-1,6.309999526E-2
1.585233438E1,4.399999976E-2,3.889999986E-1,4.199999943E-2
1.586226250E1,6.989999861E-2,3.972999752E-1,1.689999923E-2
1.587218750E1,8.249999583E-2,3.477999866E-1,2.939999849E-2
1.588211406E1,4.710000008E-2,3.972999752E-1,4.059999809E-2
1.589204063E1,7.999999798E-4,3.477999866E-1,3.549999744E-2
1.590196562E1,-8.599999361E-3,3.567000031E-1,1.489999983E-2
1.591189219E1,-5.790000036E-2,2.798999846E-1,8.609999716E-2
1.592182031E1,-3.469999880E-2,1.920000017E-1,1.449999958E-2
1.593174531E1,-8.240000159E-2,1.708000004E-1,-6.489999592E-2
1.594167188E1,-3.350000083E-2,1.587999910E-1,-7.899999619E-2
1.595159844E1,-3.749999776E-2,1.384000033E-1,-2.829999849E-2
1.596152500E1,-8.100000210E-3,1.963000000E-1,8.169999719E-2
1.597145156E1,5.059999973E-2,1.972000003E-1,1.212999970E-1
1.598137812E1,-2.789999917E-2,2.395999879E-1,1.254999936E-1
1.599130313E1,-5.379999802E-2,1.845999956E-1,5.829999968E-2
1.600122969E1,-1.480000000E-2,1.964999884E-1,-2.699999837E-3
1.601115625E1,5.189999938E-2,2.840999961E-1,-3.659999743E-2
1.602108281E1,4.399999976E-3,2.723000050E-1,-5.370000005E-2
1.603100781E1,-2.300000004E-2,2.599000037E-1,-1.689999923E-2
1.604093438E1,4.979999736E-2,2.793999910E-1,1.083999947E-1
1.605086250E1,7.989999652E-2,2.391999960E-1,2.669999935E-2
1.606078750E1,1.059999987E-1,2.597999871E-1,6.399999559E-2
1.607071406E1,5.999999703E-4,2.692999840E-1,-4.189999774E-2
1.608064062E1,-2.116999924E-1,2.574999928E-1,-1.171999946E-1
1.609056562E1,-9.860000014E-2,2.654999793E-1,3.280000016E-2
1.610049219E1,-1.176999956E-1,2.773999870E-1,1.340999901E-1
1.611041875E1,7.559999824E-2,2.671000063E-1,5.559999868E-2
1.612034531E1,8.509999514E-2,2.678000033E-1,2.049999870E-2
1.613027188E1,8.020000160E-2,3.467999995E-1,-4.209999740E-2
1.614019844E1,7.710000128E-2,3.387999833E-1,1.109999940E-1
1.615012500E1,7.599999662E-3,3.382999897E-1,1.021999940E-1
1.616005156E1,-7.899999619E-3,3.977999985E-1,5.590000004E-2
1.616997656E1,-1.370000001E-2,3.658999801E-1,-1.237000003E-1
1.617990313E1,-3.559999913E-2,3.457999825E-1,-6.909999996E-2
1.618982969E1,-1.013999954E-1,3.225999773E-1,-4.559999704E-2
1.619975625E1,-8.280000091E-2,3.497000039E-1,4.349999875E-2
1.620968281E1,-1.640000008E-2,2.504000068E-1,7.979999483E-2
1.621960938E1,-3.079999983E-2,3.290999830E-1,-3.639999777E-2
1.622953438E1,-7.469999790E-2,2.406999916E-1,-2.649999969E-2
1.623946094E1,3.899999894E-3,2.507999837E-1,1.939999871E-2
1.624938750E1,5.719999969E-2,3.786999881E-1,1.084999964E-1
1.625931406E1,-2.799999900E-2,3.980999887E-1,6.560000032E-2
1.626924063E1,1.669999957E-2,4.289999902E-1,5.619999766E-2
1.627916719E1,4.900000058E-3,4.801999927E-1,9.489999712E-2
1.628909375E1,5.389999971E-2,5.116999745E-1,1.066999957E-1
1.629901875E1,1.191999987E-1,5.324999690E-1,1.200999990E-1
1.630894531E1,6.199999899E-2,4.845999777E-1,5.389999971E-2
1.631887188E1,-5.599999800E-3,4.368999898E-1,2.919999883E-2
1.632879844E1,9.300000034E-3,4.169999957E-1,1.019999944E-2
1.633872500E1,2.199999988E-2,3.865000010E-1,1.300000004E-3
1.634865156E1,-9.499999695E-3,3.561999798E-1,4.059999809E-2
1.635857656E1,1.019999944E-2,3.355000019E-1,-5.799999926E-3
1.636850312E1,-7.819999754E-2,2.865000069E-1,5.229999870E-2
1.637842969E1,-2.939999849E-2,2.956999838E-1,7.999999798E-4
1.638835625E1,4.120000079E-2,2.777000070E-1,9.169999510E-2
1.639828281E1,5.139999837E-2,2.682999969E-1,5.689999834E-2
1.640820938E1,8.519999683E-2,2.797999978E-1,4.859999940E-2
1.641813438E1,1.929999888E-2,3.181999922E-1,-1.179999951E-2
1.642806094E1,1.999999949E-4,2.386000007E-1,-8.789999783E-2
1.643798750E1,-1.329999976E-2,2.859999835E-1,1.740000024E-2
1.644791406E1,-5.399999674E-3,2.465999871E-1,6.799999624E-2
1.645784062E1,-9.250000119E-2,2.255999893E-1,1.549999975E-2
1.646776719E1,1.399999950E-3,2.531000078E-1,-6.069999933E-2
1.647769375E1,-8.749999851E-2,2.144999951E-1,-7.899999619E-3
1.648761875E1,4.969999939E-2,2.635000050E-1,5.049999803E-2
1.649754531E1,-3.509999812E-2,2.333000004E-1,5.199999735E-2
1.650747188E1,-3.499999875E-3,2.518000007E-1,-4.699999932E-3
1.651739844E1,2.960000001E-2,2.524999976E-1,-1.229999959E-2
1.652732500E1,-4.479999840E-2,3.400000036E-1,-1.429999992E-2
1.653725000E1,4.710000008E-2,3.097999990E-1,3.509999812E-2
1.654717813E1,-3.319999948E-2,2.900999784E-1,7.530000061E-2
1.655710312E1,-6.709999591E-2,3.016999960E-1,9.459999949E-2
1.656702969E1,-6.699999794E-3,2.830999792E-1,3.469999880E-2
1.657695625E1,2.300000004E-2,2.750000060E-1,4.409999773E-2
1.658688281E1,3.059999831E-2,3.161999881E-1,7.239999622E-2
1.659680938E1,6.239999831E-2,3.470000029E-1,7.589999586E-2
1.660673438E1,6.740000099E-2,3.379999995E-1,7.490000129E-2
1.661666094E1,6.639999896E-2,3.771999776E-1,-2.339999937E-2
1.662658750E1,4.369999841E-2,4.368000031E-1,4.659999907E-2
1.663651406E1,4.479999840E-2,4.078999758E-1,6.219999865E-2
1.664644062E1,3.390000015E-2,3.887999952E-1,7.689999789E-2
1.665636562E1,-8.199999481E-2,4.658999741E-1,1.200000010E-2
1.666629219E1,-4.129999876E-2,3.691000044E-1,2.819999866E-2
1.667621875E1,-4.589999840E-2,4.262999892E-1,-3.359999880E-2
1.668614531E1,-3.309999779E-2,4.032999873E-1,-7.660000026E-2
1.669607188E1,-5.619999766E-2,3.705999851E-1,-2.960000001E-2
1.670599844E1,-2.099999972E-2,3.684999943E-1,-2.439999953E-2
1.671592500E1,-2.549999952E-2,3.369999826E-1,3.089999966E-2
1.672585156E1,-2.199999988E-2,3.366000056E-1,5.680000037E-2
1.673577656E1,-1.059999969E-2,3.271999955E-1,3.229999915E-2
1.674570313E1,-8.969999850E-2,3.493999839E-1,1.410999894E-1
1.675562969E1,-8.089999855E-2,3.635999858E-1,1.723999977E-1
1.676555625E1,-2.499999851E-2,4.646999836E-1,9.359999746E-2
1.677548281E1,6.089999899E-2,4.672999978E-1,7.559999824E-2
1.678540938E1,7.449999452E-2,4.814999998E-1,1.080999970E-1
1.679533438E1,7.349999994E-2,5.024999976E-1,8.049999923E-2
1.680526094E1,-7.899999619E-3,4.922999740E-1,5.329999700E-2
1.681518906E1,4.059999809E-2,4.532999992E-1,1.979999989E-2
1.682511406E1,3.799999831E-3,3.843999803E-1,-7.499999832E-3
1.683504062E1,3.189999983E-2,3.220999837E-1,-7.140000165E-2
1.684496719E1,1.049999986E-2,2.989999950E-1,-5.549999699E-2
1.685489219E1,6.859999895E-2,2.289999872E-1,3.700000048E-2
1.686481875E1,1.379999984E-2,1.902000010E-1,1.010999978E-1
1.687474531E1,-2.909999900E-2,2.008000016E-1,9.219999611E-2
1.688467188E1,-5.689999834E-2,2.225999981E-1,4.989999905E-2
1.689459844E1,-4.919999838E-2,2.155999988E-1,3.139999881E-2
1.690452500E1,2.300000004E-2,2.272000015E-1,4.349999875E-2
1.691445156E1,3.199999919E-3,1.837999970E-1,-1.500999928E-1
1.692437812E1,2.089999989E-2,2.462999970E-1,-2.021999955E-1
1.693430469E1,1.919999905E-2,1.244999990E-1,-8.739999682E-2
1.694422969E1,-1.589999907E-2,7.039999962E-2,-9.499999881E-2
1.695415625E1,-3.370000049E-2,1.533999890E-1,-2.659999952E-2
1.696408281E1,1.139999926E-2,1.739999950E-1,1.463000029E-1
1.697400938E1,-2.789999917E-2,2.082999945E-1,2.118999958E-1
1.698393438E1,-8.499999531E-3,1.730999947E-1,1.727000028E-1
1.699386094E1,-5.209999904E-2,2.439000010E-1,-3.749999776E-2
1.700378750E1,-7.409999520E-2,2.644999921E-1,-1.256999969E-1
1.701371406E1,-3.170000017E-2,3.121999800E-1,-5.920000002E-2
1.702364063E1,-2.799999900E-3,3.209999800E-1,1.009999961E-1
1.703356719E1,3.999999899E-4,2.917000055E-1,1.794999987E-1
1.704349375E1,4.949999973E-2,3.224999905E-1,6.379999965E-2
1.705341875E1,-2.279999852E-2,2.563999891E-1,5.899999756E-3
1.706334531E1,-4.649999738E-2,2.972999811E-1,-2.109999955E-2
1.707327188E1,-4.490000010E-2,3.449999988E-1,-2.529999986E-2
1.708319844E1,-4.100000020E-3,4.398999810E-1,-8.399999700E-3
1.709312500E1,8.999999845E-4,3.928999901E-1,1.661999971E-1
1.710305156E1,-5.279999971E-2,3.667999804E-1,1.717000008E-1
1.711297812E1,-7.539999485E-2,3.802999854E-1,1.357000023E-1
1.712290312E1,-1.079999954E-1,3.823999763E-1,-7.899999619E-3
1.713283125E1,-6.579999626E-2,3.822999895E-1,-1.567000002E-1
1.714275625E1,1.979999989E-2,3.887999952E-1,-7.829999924E-2
1.715268281E1,1.421999931E-1,4.334999919E-1,1.300000004E-3
1.716260938E1,2.129999995E-1,4.285999835E-1,2.559999935E-2
1.717253594E1,2.161999941E-1,5.119999647E-1,-5.659999698E-2
1.718246094E1,2.206999958E-1,4.406999946E-1,-1.137999967E-1
1.719238750E1,1.545999944E-1,4.976999760E-1,-5.079999939E-2
1.720231562E1,3.170000017E-2,4.658999741E-1,-3.480000049E-2
1.721224062E1,-8.519999683E-2,4.924999774E-1,-6.999999750E-4
1.722216875E1,-1.177999973E-1,3.838999867E-1,5.609999970E-2
1.723209375E1,-1.357000023E-1,4.644999802E-1,2.078000009E-1
1.724202031E1,-1.984999925E-1,4.388999939E-1,2.630999982E-1
1.725194531E1,-1.034999937E-1,4.441999793E-1,1.955999881E-1
1.726187188E1,-2.646999955E-1,4.327999949E-1,1.969999969E-1
1.727179844E1,-2.361999899E-1,4.615999758E-1,1.377999932E-1
1.728172500E1,-1.122999936E-1,4.693999887E-1,1.583999991E-1
1.729165312E1,-1.899999916E-3,4.165000021E-1,1.618999988E-1
1.730157813E1,6.790000200E-2,3.621000051E-1,4.360000044E-2
1.731150469E1,1.527999938E-1,3.801999986E-1,-2.499999851E-2
1.732142969E1,1.526999921E-1,3.255999982E-1,-1.498000026E-1
1.733135625E1,1.642999947E-1,3.167999983E-1,-1.897999942E-1
1.734128281E1,1.419000030E-1,2.160999924E-1,-2.866999805E-1
1.735120938E1,8.519999683E-2,1.990999877E-1,-7.999999821E-2
1.736113594E1,8.269999921E-2,1.055999994E-1,-2.300000004E-2
1.737106250E1,-2.669999935E-2,1.914999932E-1,3.940000013E-2
1.738098906E1,-1.480000000E-2,2.319999933E-1,1.781999916E-1
1.739091406E1,-6.019999832E-2,1.878999919E-1,1.422999948E-1
1.740084062E1,-6.839999557E-2,1.996999979E-1,3.900000080E-2
1.741076719E1,-4.549999908E-2,1.894000024E-1,-1.206999943E-1
1.742069375E1,2.489999868E-2,2.090999931E-1,-5.379999802E-2
1.743062031E1,3.070000000E-2,2.072999924E-1,-1.899999916E-3
1.744054531E1,-1.439999975E-2,2.155999988E-1,6.659999490E-2
1.745047344E1,-8.729999512E-2,2.547000051E-1,7.919999957E-2
1.746039844E1,-8.190000057E-2,2.475999892E-1,6.539999694E-2
1.747032500E1,-8.489999920E-2,2.883999944E-1,2.989999950E-2
1.748025156E1,-3.280000016E-2,2.330999970E-1,1.296000034E-1
1.749017812E1,-1.030000020E-2,3.346999884E-1,1.425999999E-1
1.750010469E1,2.669999935E-2,3.477999866E-1,1.159999967E-1
1.751002969E1,6.799999624E-3,3.294999897E-1,4.100000020E-3
1.751995625E1,3.839999810E-2,4.098999798E-1,1.099999994E-2
1.752988281E1,4.829999804E-2,4.760999978E-1,-5.409999937E-2
1.753980938E1,1.085999981E-1,3.657999933E-1,6.099999882E-3
1.754973594E1,4.679999873E-2,3.436999917E-1,1.269999985E-2
1.755966250E1,-3.299999982E-3,2.935999930E-1,3.799999831E-3
1.756958906E1,-2.249999903E-2,2.518999875E-1,-3.720000014E-2
1.757951563E1,-2.620000020E-2,2.703000009E-1,-4.299999774E-2
1.758944062E1,2.850000001E-2,2.683999836E-1,-1.989999972E-2
1.759936719E1,-4.799999762E-3,2.951000035E-1,-5.499999970E-2
1.760929375E1,-9.959999472E-2,2.448999882E-1,2.999999933E-2
1.761922031E1,-4.699999839E-2,3.032000065E-1,1.889999956E-2
1.762914688E1,-6.539999694E-2,3.143000007E-1,1.024999991E-1
1.763907344E1,-1.129999943E-2,3.170999885E-1,1.594000012E-1
1.764899844E1,-1.019999944E-2,3.601000011E-1,1.070999950E-1
1.765892500E1,-1.229999959E-2,3.226999938E-1,4.639999941E-2
1.766885156E1,-6.799999624E-3,3.454000056E-1,5.229999870E-2
1.767877812E1,7.829999924E-2,2.962000072E-1,-1.869999990E-2
1.768870469E1,6.920000166E-2,3.351999819E-1,5.979999900E-2
1.769863125E1,2.269999869E-2,3.440999985E-1,9.999999776E-3
1.770855625E1,-4.969999939E-2,3.928000033E-1,1.310000010E-2
1.771848438E1,-1.389999967E-2,3.228999972E-1,6.300000008E-3
1.772840938E1,-4.589999840E-2,3.217999935E-1,-4.859999940E-2
1.773833594E1,1.249999925E-2,3.102000058E-1,3.000000026E-3
1.774826250E1,-1.519999932E-2,3.303000033E-1,7.750000060E-2
1.775818906E1,-3.269999847E-2,2.522000074E-1,6.359999627E-2
1.776811562E1,-7.649999857E-2,3.014999926E-1,3.390000015E-2
1.777804063E1,-9.290000051E-2,3.132999837E-1,4.429999739E-2
1.778796719E1,-1.239999980E-1,3.348999918E-1,3.150000051E-2
1.779789375E1,-3.629999980E-2,2.492999882E-1,1.269000024E-1
1.780782031E1,4.339999706E-2,3.264999986E-1,-5.279999971E-2
1.781774531E1,4.979999736E-2,2.456000000E-1,-1.235999987E-1
1.782767344E1,7.779999822E-2,3.319999874E-1,-1.009999961E-2
1.783759844E1,4.949999973E-2,3.511999846E-1,8.439999819E-2
1.784752500E1,5.419999734E-2,3.395999968E-1,1.286000013E-1
1.785745156E1,9.599999525E-3,3.111999929E-1,6.419999897E-2
1.786737813E1,1.970000006E-2,3.999999762E-1,-6.209999695E-2
1.787730469E1,4.959999770E-2,4.202999771E-1,2.609999850E-2
1.788723125E1,-1.499999966E-2,4.796999991E-1,1.070999950E-1
1.789715625E1,4.199999943E-2,4.796999991E-1,1.056999937E-1
1.790708281E1,-2.259999886E-2,5.105000138E-1,1.197999939E-1
1.791700938E1,-7.050000131E-2,5.238999724E-1,8.109999448E-2
1.792693594E1,-1.049999986E-2,5.934999585E-1,1.409999933E-2
1.793686250E1,-9.009999782E-2,5.536000133E-1,1.289999951E-2
1.794678750E1,9.219999611E-2,5.831999779E-1,6.979999691E-2
1.795671406E1,9.309999645E-2,5.852999687E-1,1.923999935E-1
1.796664062E1,7.930000126E-2,6.055999994E-1,1.043999940E-1
1.797656875E1,3.139999881E-2,5.967000127E-1,2.649999969E-2
1.798649375E1,-6.119999662E-2,5.859999657E-1,-6.359999627E-2
1.799642031E1,-7.389999926E-2,5.062999725E-1,-3.070000000E-2
1.800634531E1,-9.319999814E-2,4.729999900E-1,1.599999960E-3
1.801627344E1,-5.939999968E-2,4.203999937E-1,-4.339999706E-2
1.802619844E1,-6.269999593E-2,3.504999876E-1,3.379999846E-2
1.803612500E1,-4.749999940E-2,3.507999778E-1,3.379999846E-2
1.804605156E1,-9.129999578E-2,2.717999816E-1,-1.899999916E-3
1.805597813E1,-1.290999949E-1,2.522999942E-1,1.759999990E-2
1.806590469E1,-8.999999613E-3,1.844999939E-1,-5.699999630E-3
1.807583125E1,-3.419999778E-2,1.749999970E-1,2.649999969E-2
1.808575781E1,-4.399999976E-2,2.236999869E-1,-1.709999889E-2
1.809568281E1,5.669999868E-2,1.744000018E-1,1.260000002E-2
1.810560938E1,1.127999946E-1,1.931999922E-1,4.699999839E-2
1.811553594E1,1.055999994E-1,1.442999989E-1,3.859999776E-2
1.812546250E1,6.889999658E-2,2.041999996E-1,1.239999980E-1
1.813538906E1,8.999999613E-3,1.878999919E-1,1.283999979E-1
1.814531406E1,4.490000010E-2,1.794999987E-1,1.909999922E-2
1.815524062E1,7.799999788E-3,1.689999998E-1,-8.159999549E-2
1.816516719E1,-3.700000001E-3,1.193000004E-1,-7.449999452E-2
1.817509375E1,3.390000015E-2,6.729999930E-2,-7.189999521E-2
1.818502031E1,1.069999952E-2,1.124999970E-1,-2.879999951E-2
1.819494688E1,4.999999702E-2,1.905999929E-1,9.290000051E-2
1.820487188E1,2.659999952E-2,2.025000006E-1,1.156999990E-1
1.821479844E1,-4.399999976E-2,2.338999957E-1,8.289999515E-2
1.822472500E1,-2.869999968E-2,2.651999891E-1,3.209999949E-2
1.823465156E1,-7.229999453E-2,2.171999961E-1,-4.609999806E-2
1.824457812E1,-1.589999907E-2,2.268999964E-1,5.200000014E-3
1.825450469E1,7.199999876E-3,2.257999927E-1,9.099999443E-3
1.826442969E1,-5.999999703E-4,2.818999887E-1,-5.759999901E-2
1.827435625E1,-7.580000162E-2,2.806999981E-1,-9.999999311E-4
1.828428281E1,-6.489999592E-2,4.093999863E-1,8.509999514E-2
1.829420938E1,-1.094999984E-1,3.634999990E-1,1.925999969E-1
1.830413594E1,-1.129999943E-2,5.036000013E-1,1.555999964E-1
1.831406250E1,-4.089999944E-2,4.976999760E-1,6.129999831E-2
1.832398906E1,4.050000012E-2,5.580999851E-1,-5.200000014E-3
1.833391406E1,1.374000013E-1,6.050999761E-1,-6.920000166E-2
1.834384063E1,9.209999442E-2,5.823000073E-1,3.500000015E-2
1.835376719E1,1.498000026E-1,4.907999933E-1,1.529999916E-2
1.836369375E1,8.850000054E-2,4.970999956E-1,-3.769999743E-2
1.837362031E1,-3.700000001E-3,4.953999817E-1,1.109999977E-2
1.838354688E1,-3.680000082E-2,4.759999812E-1,3.869999945E-2
1.839347344E1,-3.269999847E-2,4.259999990E-1,5.909999833E-2
1.840339844E1,-6.529999524E-2,4.566999972E-1,1.419000030E-1
1.841332500E1,8.399999700E-3,4.693999887E-1,1.097999960E-1
1.842325313E1,-2.740000002E-2,4.421999753E-1,7.479999959E-2
1.843317969E1,-7.530000061E-2,3.655999899E-1,4.629999772E-2
1.844310625E1,2.699999837E-3,3.770999908E-1,3.830000013E-2
1.845303125E1,2.469999902E-2,4.259999990E-1,3.940000013E-2
1.846295781E1,-2.689999901E-2,4.172999859E-1,8.789999783E-2
1.847288281E1,-2.719999850E-2,4.077999890E-1,3.629999980E-2
1.848280938E1,3.240000084E-2,3.297999799E-1,3.979999945E-2
1.849273750E1,1.099999994E-2,3.093000054E-1,-2.859999985E-2
1.850266406E1,-1.649999991E-2,2.094999999E-1,-6.889999658E-2
1.851258906E1,-3.379999846E-2,2.247999907E-1,-1.094999984E-1
1.852251562E1,-4.140000045E-2,2.220999897E-1,-3.909999877E-2
1.853244219E1,-1.609999873E-2,2.280000001E-1,-6.769999862E-2
1.854236719E1,3.399999812E-3,2.056999952E-1,-3.280000016E-2
1.855229375E1,5.399999674E-3,1.846999973E-1,1.549999975E-2
1.856222188E1,2.719999850E-2,1.864999980E-1,1.274999976E-1
1.857214688E1,-3.749999776E-2,2.076999992E-1,1.180999950E-1
1.858207344E1,1.539999992E-2,2.307999879E-1,1.231999993E-1
1.859200000E1,1.939999871E-2,2.329999954E-1,8.599999361E-3
1.860192500E1,5.599999800E-3,2.527999878E-1,-8.240000159E-2
1.861185156E1,5.469999835E-2,3.211999834E-1,3.729999810E-2
1.862177813E1,7.109999657E-2,2.912999988E-1,4.050000012E-2
1.863170469E1,1.290999949E-1,2.717999816E-1,1.158000007E-1
1.864163125E1,5.150000006E-2,3.725000024E-1,1.448999941E-1
1.865155781E1,1.319999993E-2,3.734000027E-1,-6.039999798E-2
1.866148281E1,-1.539999992E-1,3.251999915E-1,3.790000081E-2
1.867140938E1,-1.175999939E-1,3.283999860E-1,1.400000006E-1
1.868133594E1,-1.116999984E-1,2.909999788E-1,1.036999971E-1
1.869126250E1,-1.213999987E-1,2.910999954E-1,4.889999703E-2
1.870118906E1,-1.699999906E-2,3.651999831E-1,8.799999952E-2
1.871111562E1,7.899999619E-3,4.077000022E-1,7.710000128E-2
1.872104219E1,-3.209999949E-2,3.874999881E-1,1.689999923E-2
1.873096719E1,-8.609999716E-2,3.476999998E-1,-1.999999862E-3
1.874089375E1,-5.099999905E-2,3.058999777E-1,-1.226999983E-1
1.875082031E1,-9.699999355E-3,2.525999844E-1,-1.052999943E-1
1.876074688E1,1.429999992E-2,2.180999964E-1,-9.529999644E-2
1.877067344E1,7.239999622E-2,2.014999986E-1,-1.753999889E-1
1.878060000E1,6.989999861E-2,2.163999975E-1,-1.599999890E-2
1.879052656E1,3.999999724E-3,1.755999923E-1,3.869999945E-2
1.880045156E1,4.769999906E-2,2.259999961E-1,1.920999885E-1
1.881037812E1,9.999999311E-4,2.073999941E-1,9.649999440E-2
1.882030625E1,-3.419999778E-2,1.611000001E-1,-1.489999983E-2
1.883023125E1,-1.669999957E-2,1.920000017E-1,-1.109999977E-2
1.884015781E1,4.699999932E-3,2.549999952E-1,1.639999896E-1
1.885008438E1,-5.200000014E-3,2.202999890E-1,2.730000019E-1
1.886001094E1,-9.499999695E-3,2.547000051E-1,1.633999944E-1
1.886993750E1,-9.070000052E-2,2.709999979E-1,8.309999853E-2
1.887986250E1,-7.199999690E-2,2.949999869E-1,-5.289999768E-2
1.888978906E1,2.369999886E-2,3.052999973E-1,-1.679999940E-2
1.889971563E1,1.215999946E-1,4.580999911E-1,-1.699999906E-3
1.890964219E1,1.632999927E-1,4.855999947E-1,6.899999827E-2
1.891956875E1,1.160999984E-1,4.345999956E-1,5.209999904E-2
1.892949531E1,-1.979999989E-2,5.196999907E-1,-9.559999406E-2
1.893942031E1,1.489999983E-2,5.049999952E-1,-1.156999990E-1
1.894934688E1,-1.999999955E-2,5.785999894E-1,-1.122999936E-1
1.895927344E1,-1.860000007E-2,4.752999842E-1,-5.099999905E-2
1.896920000E1,-3.739999980E-2,5.392000079E-1,-1.399999950E-3
1.897912656E1,-5.949999765E-2,6.148999929E-1,-2.339999937E-2
1.898905312E1,-1.186999977E-1,5.860999823E-1,1.194999963E-1
1.899897812E1,-8.549999446E-2,6.678000093E-1,2.175999880E-1
1.900890469E1,-1.502999961E-1,7.023999691E-1,2.524999976E-1
1.901883125E1,-1.500000013E-3,7.374999523E-1,2.210000008E-1
1.902875781E1,-1.750000007E-2,7.520999908E-1,3.669999912E-2
1.903868438E1,-5.289999768E-2,8.392999768E-1,-1.246999949E-1
1.904861094E1,-5.499999970E-2,8.460999727E-1,-7.779999822E-2
1.905853594E1,1.239999942E-2,9.103999734E-1,1.579999924E-2
1.906846250E1,7.199999876E-3,9.277999997E-1,1.615999937E-1
1.907838906E1,8.419999480E-2,1.036100030E0,2.381999940E-1
1.908831562E1,-6.619999558E-2,1.225000024E0,1.481000036E-1
1.909824063E1,1.489999983E-2,1.364199996E0,1.209999993E-1
1.910816719E1,9.309999645E-2,1.434399962E0,1.273999959E-1
1.911809375E1,6.209999695E-2,1.514400005E0,2.233999968E-1
1.912802188E1,2.439999953E-2,1.711499929E0,2.513999939E-1
1.913794688E1,-4.939999804E-2,1.783699989E0,3.097999990E-1
1.914787344E1,-9.589999914E-2,1.905399919E0,2.705999911E-1
1.915780000E1,-1.899999916E-3,1.997999907E0,2.782000005E-1
1.916772656E1,-6.989999861E-2,2.105099916E0,5.522999763E-1
1.917765313E1,-1.281999946E-1,2.182299852E0,4.541999996E-1
1.918757969E1,-1.229999959E-1,2.170599937E0,4.337999821E-1
1.919750469E1,-1.146999970E-1,2.287699938E0,4.157999754E-1
1.920743125E1,-8.209999651E-2,2.283900023E0,2.400999963E-1
1.921735781E1,-3.909999877E-2,2.332000017E0,2.981999815E-1
1.922728438E1,9.200000018E-2,2.273900032E0,3.574000001E-1
1.923720938E1,8.810000122E-2,2.166100025E0,3.522000015E-1
1.924713750E1,3.700000048E-2,2.193099976E0,2.870999873E-1
1.925706250E1,9.589999914E-2,2.043999910E0,1.601999998E-1
1.926698906E1,1.334999949E-1,1.833099961E0,6.599999964E-2
1.927691562E1,1.061999947E-1,1.740299940E0,1.680999994E-1
1.928684219E1,1.620000042E-2,1.677999973E0,2.440999895E-1
1.929676875E1,-1.065999940E-1,1.636099935E0,2.161999941E-1
1.930669531E1,-2.840000018E-2,1.421399951E0,2.377000004E-1
1.931662188E1,2.060000040E-2,1.337899923E0,2.593999803E-1
1.932654844E1,8.100000210E-3,1.312299967E0,2.590999901E-1
1.933647500E1,-1.079999954E-1,1.139199972E0,2.346999943E-1
1.934640000E1,-1.456999928E-1,9.856999516E-1,1.416999996E-1
1.935632656E1,-4.559999704E-2,8.798999786E-1,1.084999964E-1
1.936625312E1,2.369999886E-2,7.397999763E-1,-1.709999889E-2
1.937617969E1,1.272999942E-1,6.570000052E-1,-1.519999932E-2
1.938610625E1,1.436000019E-1,5.054999590E-1,2.559999935E-2
1.939603281E1,2.510000020E-2,5.498999953E-1,1.699999906E-3
1.940595938E1,5.489999801E-2,4.377999902E-1,2.559999935E-2
1.941588438E1,5.649999902E-2,3.621999919E-1,1.612000018E-1
1.942581094E1,2.339999937E-2,3.480999768E-1,2.071999907E-1
1.943573750E1,-4.999999702E-2,3.118999898E-1,1.053999960E-1
1.944566406E1,-5.049999803E-2,2.144999951E-1,-7.599999756E-2
1.945559063E1,-6.909999996E-2,1.935999990E-1,-1.361999959E-1
1.946551719E1,-1.589999944E-1,1.881999969E-1,-9.559999406E-2
1.947544219E1,-1.049999986E-2,1.497000009E-1,-1.010999978E-1
1.948536719E1,1.869999990E-2,1.349999905E-1,2.899999917E-2
1.949529531E1,5.999999866E-2,1.319999993E-1,-2.400000021E-2
1.950522188E1,7.000000030E-2,1.369999945E-1,-1.376999915E-1
1.951514844E1,1.178999990E-1,1.026999950E-1,-1.027999967E-1
1.952507500E1,1.125999987E-1,1.973999888E-1,-7.869999856E-2
1.953500156E1,7.209999859E-2,2.135999948E-1,2.819999866E-2
1.954494531E1,-7.199999876E-3,3.691999912E-1,9.349999577E-2
1.955485156E1,-1.498999894E-1,4.772999883E-1,4.949999973E-2
1.956477969E1,-9.899999946E-2,5.455999970E-1,2.080000006E-2
1.957470625E1,-9.250000119E-2,6.732000113E-1,3.619999811E-2
1.958463125E1,-7.949999720E-2,7.322999835E-1,1.013999954E-1
1.959455938E1,-1.666999906E-1,8.506000042E-1,1.384000033E-1
1.960448438E1,-5.570000038E-2,1.010900021E0,2.338999957E-1
1.961441094E1,-5.379999802E-2,1.044799924E0,2.045999914E-1
1.962433750E1,2.589999884E-2,1.177099943E0,2.099999934E-1
1.963426250E1,5.370000005E-2,1.280799985E0,2.768999934E-1
1.964419062E1,3.999999899E-4,1.237100005E0,2.386999875E-1
1.965411563E1,-2.339999937E-2,1.366099954E0,1.563999951E-1
1.966404375E1,-7.310000062E-2,1.357599974E0,1.357000023E-1
1.967396875E1,-6.140000001E-2,1.340299964E0,1.870999932E-1
1.968389531E1,-2.789999917E-2,1.261699915E0,1.702999920E-1
1.969382031E1,-1.099999994E-2,1.172899961E0,1.657999903E-1
1.970374844E1,4.169999808E-2,1.054700017E0,8.109999448E-2
1.971367344E1,1.899999939E-2,9.838999510E-1,8.899999782E-3
1.972360000E1,1.429999992E-2,7.637999654E-1,-1.489999983E-2
1.973352656E1,2.719999850E-2,6.803999543E-1,-2.300000004E-2
1.974345313E1,2.819999866E-2,5.199999809E-1,5.570000038E-2
1.975337969E1,6.769999862E-2,5.174999833E-1,4.829999804E-2
1.976330469E1,9.399999678E-2,4.199999869E-1,1.096000001E-1
1.977323125E1,-1.679999940E-2,2.834999859E-1,5.279999971E-2
1.978315781E1,-1.032999977E-1,1.865999997E-1,3.399999812E-3
1.979308438E1,-6.409999728E-2,1.080999970E-1,4.100000020E-3
1.980301094E1,-2.669999935E-2,-1.599999960E-3,-1.137999967E-1
1.981293750E1,4.230000079E-2,-3.779999912E-2,-2.053999901E-1
1.982286250E1,7.440000027E-2,-1.592999995E-1,-6.949999928E-2
1.983278906E1,-1.509999949E-2,-2.976999879E-1,3.889999911E-2
