"Time (s)","Acceleration x (m/s^2)","Acceleration y (m/s^2)","Acceleration z (m/s^2)"
0.000000000E0,-3.804003298E-1,1.020534134E1,2.833020449E0
4.943750000E-3,-3.660447001E-1,1.026755238E1,2.852164507E0
9.906250000E-3,-2.176903933E-1,1.029386997E1,2.684666157E0
1.487031300E-2,5.746084207E-5,1.027234173E1,2.249170542E0
1.983281300E-2,1.920149848E-2,1.021012115E1,1.873501062E0
2.479687500E-2,7.240065839E-3,9.934949875E0,1.466716647E0
2.975937500E-2,-3.104800731E-2,9.899056435E0,1.220257521E0
3.472187500E-2,3.355713189E-2,9.872738838E0,1.071903229E0
3.968593800E-2,1.244793311E-1,9.748308182E0,9.259431362E-1
4.464843800E-2,1.699404269E-1,9.688490868E0,7.273392677E-1
4.961250000E-2,1.890844703E-1,9.659780502E0,5.215529203E-1
5.457500000E-2,1.268735379E-1,9.566453934E0,3.612371385E-1
5.953750000E-2,8.141243458E-2,9.592781067E0,2.033060342E-1
6.450156300E-2,-1.028357521E-1,9.590386391E0,2.272384614E-1
6.946562500E-2,-2.655456960E-1,9.566453934E0,2.368056923E-1
7.442812500E-2,-4.282556474E-1,9.573637009E0,2.966320217E-1
7.939062500E-2,-4.880723953E-1,9.599953651E0,4.760918021E-1
8.435468800E-2,-6.603591442E-1,9.652597427E0,4.713034034E-1
8.931718800E-2,-7.943577766E-1,9.695664406E0,4.617361724E-1
9.427968800E-2,-9.714233875E-1,9.702846527E0,4.186596870E-1
9.924375000E-2,-1.021672964E0,9.724386215E0,3.109876513E-1
1.042062500E-1,-1.031249762E0,9.666953087E0,4.114866555E-1
1.091703130E-1,-1.064749360E0,9.707635880E0,4.856590331E-1
1.141328130E-1,-1.055172563E0,9.698058128E0,5.646198392E-1
1.190968750E-1,-1.012105703E0,9.743529320E0,7.488679886E-1
1.240593750E-1,-9.642503858E-1,9.748308182E0,9.331161380E-1
1.290218750E-1,-9.283565283E-1,9.757884979E0,1.074297428E0
1.339859380E-1,-8.326458931E-1,9.755491257E0,1.215469122E0
1.389484380E-1,-8.446072936E-1,9.772240639E0,1.246574640E0
1.439125000E-1,-7.943577766E-1,9.755491257E0,1.222651720E0
1.488750000E-1,-6.795032024E-1,9.710029602E0,1.181969523E0
1.538390630E-1,-6.507919431E-1,9.693280220E0,1.002509713E0
1.588015630E-1,-5.072164536E-1,9.769846916E0,9.115875363E-1
1.637640630E-1,-4.976491928E-1,9.702846527E0,8.756936789E-1
1.687281250E-1,-5.359276533E-1,9.726778984E0,9.618370533E-1
1.736906250E-1,-5.143990517E-1,9.726778984E0,1.057547569E0
1.786546880E-1,-4.569669068E-1,9.760279655E0,1.165219545E0
1.836171880E-1,-4.521880746E-1,9.774634361E0,1.134114146E0
1.885812500E-1,-4.162942171E-1,9.777029037E0,1.033615232E0
1.935437500E-1,-3.947559893E-1,9.741134644E0,1.019259572E0
1.985062500E-1,-4.354382753E-1,9.717203140E0,1.088653088E0
2.034703130E-1,-3.947559893E-1,9.698058128E0,1.134114146E0
2.084328130E-1,-4.258614480E-1,9.707635880E0,1.143691063E0
2.133968750E-1,-3.708235621E-1,9.731558800E0,1.138902545E0
2.183593750E-1,-3.756119311E-1,9.719596863E0,9.977213144E-1
2.233234380E-1,-3.492948711E-1,9.767452240E0,1.100614548E0
2.282859380E-1,-3.014395833E-1,9.743529320E0,1.052759290E0
2.332500000E-1,-1.746139228E-1,9.779414177E0,1.016865373E0
2.382125000E-1,-1.028357521E-1,9.798557281E0,1.114970207E0
2.431750000E-1,-1.267586201E-1,9.748308182E0,1.146075726E0
2.481390630E-1,-9.565314651E-2,9.729164124E0,1.155652523E0
2.531015630E-1,-6.454767287E-2,9.793779373E0,1.196325064E0
2.580640630E-1,-1.315470189E-1,9.786596298E0,1.208296180E0
2.630281250E-1,-1.315470189E-1,9.805740356E0,1.306401014E0
2.679906250E-1,-1.315470189E-1,9.777029037E0,1.320756555E0
2.729546880E-1,-9.325893968E-2,9.803345680E0,1.306401014E0
2.779171880E-1,-1.315470189E-1,9.741134644E0,1.299218416E0
2.828812500E-1,-1.387200505E-1,9.719596863E0,1.320756555E0
2.878437500E-1,-1.722197086E-1,9.796163559E0,1.399717450E0
2.928062500E-1,-1.985463500E-1,9.793779373E0,1.390150189E0
2.977703130E-1,-3.086126149E-1,9.812912941E0,1.481072307E0
3.027328130E-1,-3.445064723E-1,9.860768318E0,1.457149386E0
3.076968750E-1,-4.593611062E-1,9.863162994E0,1.399717450E0
3.126593750E-1,-4.665437341E-1,9.958883286E0,1.359044671E0
3.176234380E-1,-5.096106529E-1,9.887095451E0,1.382967472E0
3.225859380E-1,-5.048221946E-1,9.975632668E0,1.325544953E0
3.275500000E-1,-5.550717115E-1,9.906239510E0,1.282468557E0
3.325125000E-1,-5.718215108E-1,9.867951393E0,1.306401014E0
3.374750000E-1,-6.316478848E-1,9.844018936E0,1.414072990E0
3.424390630E-1,-6.675417423E-1,9.863162994E0,1.471505165E0
3.474015630E-1,-5.981481671E-1,9.951700211E0,1.418861270E0
3.523640630E-1,-5.407160521E-1,9.889489174E0,1.505004764E0
3.573281250E-1,-4.737167358E-1,9.896661758E0,1.390150189E0
3.622906250E-1,-4.019385576E-1,9.870346069E0,1.315968156E0
3.672546880E-1,-3.923617899E-1,9.822490692E0,1.201113582E0
3.722171880E-1,-3.660447001E-1,9.812912941E0,1.167613864E0
3.771812500E-1,-3.588621020E-1,9.788990021E0,1.155652523E0
3.821437500E-1,-3.301508427E-1,9.757884979E0,1.086258888E0
3.871078130E-1,-3.205740452E-1,9.721991539E0,1.093441486E0
3.920703130E-1,-3.325450420E-1,9.772240639E0,1.100614548E0
3.970328130E-1,-2.846897244E-1,9.745914459E0,1.038403511E0
4.019968750E-1,-3.325450420E-1,9.731558800E0,1.081470490E0
4.069593750E-1,-3.540737033E-1,9.822490692E0,1.227440238E0
4.119234380E-1,-4.043232203E-1,9.765057564E0,1.186757922E0
4.168859380E-1,-4.856877327E-1,9.781807899E0,1.198719382E0
4.218484380E-1,-4.497938752E-1,9.796163559E0,1.079076290E0
4.268125000E-1,-5.143990517E-1,9.803345680E0,1.093441486E0
4.317750000E-1,-4.641495049E-1,9.800951958E0,1.021653771E0
4.367390630E-1,-5.359276533E-1,9.798557281E0,9.546543956E-1
4.417031250E-1,-5.718215108E-1,9.865556717E0,9.331161380E-1
4.466656250E-1,-5.598601103E-1,9.827268600E0,9.881540537E-1
4.516281250E-1,-5.694273710E-1,9.863162994E0,1.136508465E0
4.565906250E-1,-5.407160521E-1,9.846412659E0,1.241795778E0
4.615546880E-1,-4.808993638E-1,9.911018372E0,1.323150754E0
4.665171880E-1,-4.593611062E-1,9.879913330E0,1.433217049E0
4.714812500E-1,-3.732177317E-1,9.882307053E0,1.421255589E0
4.764437500E-1,-4.234672487E-1,9.844018936E0,1.368611932E0
4.814078130E-1,-3.516891003E-1,9.829663277E0,1.359044671E0
4.863703130E-1,-3.804003298E-1,9.901451111E0,1.363823533E0
4.913343750E-1,-3.492948711E-1,9.867951393E0,1.306401014E0
4.962968750E-1,-2.799013257E-1,9.863162994E0,1.222651720E0
5.012593750E-1,-2.607572973E-1,9.855990410E0,1.196325064E0
5.062234380E-1,-2.775071263E-1,9.901451111E0,1.134114146E0
5.111859380E-1,-1.171913818E-1,9.855990410E0,1.155652523E0
5.161500000E-1,-4.779784381E-2,9.781807899E0,1.136508465E0
5.211125000E-1,-7.650911063E-2,9.834450722E0,1.162825465E0
5.260750000E-1,-1.459026486E-1,9.911018372E0,1.251363039E0
5.310390630E-1,-1.817965209E-1,9.865556717E0,1.263324499E0
5.360015630E-1,-2.368248552E-1,9.903844833E0,1.229824781E0
5.409640630E-1,-2.487958670E-1,9.915806770E0,1.170008063E0
5.459281250E-1,-2.966511548E-1,9.932557106E0,1.083864689E0
5.508906250E-1,-3.253624141E-1,9.858384132E0,1.031220913E0
5.558546880E-1,-3.780061305E-1,9.915806770E0,9.929425120E-1
5.608171880E-1,-4.330440462E-1,9.887095451E0,9.977213144E-1
5.657812500E-1,-4.689379334E-1,9.827268600E0,8.972222805E-1
5.707437500E-1,-5.478987098E-1,9.820096016E0,8.493670225E-1
5.757062500E-1,-5.646485090E-1,9.774634361E0,8.110885024E-1
5.806703130E-1,-5.933598280E-1,9.779414177E0,8.972222805E-1
5.856343750E-1,-6.292536855E-1,9.810519218E0,8.996165395E-1
5.905968750E-1,-5.574659705E-1,9.717203140E0,9.618370533E-1
5.955609380E-1,-5.096106529E-1,9.753096581E0,9.474717975E-1
6.005218750E-1,-3.947559893E-1,9.777029037E0,9.809715152E-1
6.054859380E-1,-3.899675608E-1,9.721991539E0,9.714042544E-1
6.104484380E-1,-2.081135809E-1,9.726778984E0,1.103008628E0
6.154125000E-1,-1.746139228E-1,9.745914459E0,1.335112214E0
6.203765630E-1,-3.827945590E-1,9.707635880E0,1.842395663E0
6.253390630E-1,-4.641495049E-1,1.000913239E1,2.172604084E0
6.303015630E-1,-9.762117863E-1,1.026755238E1,3.306794643E0
6.352656250E-1,-7.172070444E-2,1.024840927E1,2.486062527E0
6.402296880E-1,3.446213901E-1,1.010962200E1,2.246776342E0
6.451921880E-1,2.877830528E-2,1.010484314E1,2.464524269E0
6.501546880E-1,-2.865380608E-2,9.870346069E0,3.010086298E0
6.551187500E-1,-1.770081222E-1,1.001630592E1,5.120555878E0
6.600796880E-1,-2.147120051E-2,9.956489563E0,4.708992481E0
6.650453130E-1,3.446213901E-1,9.975632668E0,3.768617153E0
6.700078130E-1,7.178965807E-1,1.014312172E1,2.890443087E0
6.749718750E-1,7.490020990E-1,1.019815922E1,2.072104931E0
6.799328130E-1,6.126092076E-1,1.021969795E1,1.466716647E0
6.848968750E-1,3.637558520E-1,1.020055389E1,1.184363604E0
6.898609380E-1,1.101237014E-1,1.016705418E1,1.028836250E0
6.948234380E-1,-9.804734588E-2,1.021251583E1,9.905482531E-1
6.997875000E-1,-1.817965209E-1,1.021730328E1,1.074297428E0
7.047500000E-1,-2.583630979E-1,1.013834286E1,1.210690260E0
7.097125000E-1,-3.157951832E-1,1.017184258E1,1.313573956E0
7.146765630E-1,-2.822955251E-1,1.014791012E1,1.392544270E0
7.196390630E-1,-3.086126149E-1,1.015987110E1,1.363823533E0
7.246031250E-1,-2.727187276E-1,1.007613182E1,1.411678791E0
7.295656250E-1,-2.535746992E-1,1.004263210E1,1.610292196E0
7.345296880E-1,-1.770081222E-1,1.007613182E1,1.588753939E0
7.394921880E-1,-1.961521655E-1,9.963662148E0,1.538504362E0
7.444546880E-1,-1.626524776E-1,9.908634186E0,1.591148138E0
7.494171880E-1,-4.540364072E-2,9.877518654E0,1.461928368E0
7.543812500E-1,1.920149848E-2,9.772240639E0,1.402111530E0
7.593437500E-1,4.552813992E-2,9.690885544E0,1.339900613E0
7.643062500E-1,8.620083332E-2,9.647809982E0,1.304006696E0
7.692718750E-1,1.507963985E-1,9.628664970E0,1.471505165E0
7.742343750E-1,1.603731960E-1,9.621492386E0,1.488254905E0
7.791968750E-1,2.082285136E-1,9.604742050E0,1.619859338E0
7.841609380E-1,2.608722150E-1,9.590386391E0,1.749069691E0
7.891234380E-1,2.656510174E-1,9.554492950E0,1.830424666E0
7.940875000E-1,3.278715611E-1,9.456387520E0,1.799319267E0
7.990500000E-1,3.709384501E-1,9.497060776E0,1.744281292E0
8.040125000E-1,4.307551980E-1,9.465954781E0,1.684464574E0
8.089765630E-1,4.618606567E-1,9.470744133E0,1.562427282E0
8.139390630E-1,5.575808883E-1,9.504242897E0,1.421255589E0
8.189015630E-1,5.527924299E-1,9.480310440E0,1.272901297E0
8.238640630E-1,4.738316536E-1,9.492281914E0,1.320756555E0
8.288281250E-1,3.828999102E-1,9.463561058E0,1.306401014E0
8.337906250E-1,3.924766779E-1,9.530560493E0,1.272901297E0
8.387546880E-1,3.757268786E-1,9.537743568E0,1.201113582E0
8.437171880E-1,4.283609986E-1,9.513810158E0,1.205901980E0
8.486796880E-1,4.331493974E-1,9.451600075E0,1.062336087E0
8.536453130E-1,4.355435967E-1,9.465954781E0,1.093441486E0
8.586078130E-1,4.857930839E-1,9.475532532E0,1.038403511E0
8.635718750E-1,4.451108277E-1,9.468349457E0,9.929425120E-1
8.685343750E-1,4.762258530E-1,9.583204269E0,9.905482531E-1
8.734968750E-1,4.977545440E-1,9.568848610E0,9.953366518E-1
8.784609380E-1,5.121101737E-1,9.561666489E0,1.093441486E0
8.834234380E-1,4.881873131E-1,9.564060211E0,9.905482531E-1
8.883859380E-1,5.384368300E-1,9.465954781E0,9.379045963E-1
8.933484380E-1,4.762258530E-1,9.528165817E0,9.187605381E-1
8.983125000E-1,5.001487136E-1,9.487493515E0,9.977213144E-1
9.032765630E-1,5.121101737E-1,9.597559929E0,1.002509713E0
9.082390630E-1,4.235821664E-1,9.590386391E0,1.043192029E0
9.132031250E-1,3.996497095E-1,9.616703987E0,1.062336087E0
9.181640630E-1,2.824008763E-1,9.607136726E0,1.083864689E0
9.231281250E-1,2.584780157E-1,9.619097710E0,1.055153489E0
9.280906250E-1,3.206889629E-1,9.635848045E0,1.004903913E0
9.330546880E-1,3.398329914E-1,9.650202751E0,1.002509713E0
9.380187500E-1,3.757268786E-1,9.638241768E0,9.594427943E-1
9.429812500E-1,3.709384501E-1,9.666953087E0,1.014471173E0
9.479453130E-1,3.805056810E-1,9.678915024E0,1.181969523E0
9.529062500E-1,3.350445926E-1,9.650202751E0,1.217863441E0
9.578703130E-1,3.589770198E-1,9.643030167E0,1.301612496E0
9.628328130E-1,4.211879671E-1,9.659780502E0,1.287256956E0
9.677968750E-1,4.738316536E-1,9.640635490E0,1.344689012E0
9.727609380E-1,5.001487136E-1,9.559281349E0,1.325544953E0
9.777234380E-1,4.666490853E-1,9.583204269E0,1.299218416E0
9.826859380E-1,5.408309698E-1,9.654992104E0,1.385361671E0
9.876484380E-1,5.456098914E-1,9.671741486E0,1.438005328E0
9.926125000E-1,6.197918057E-1,9.635848045E0,1.528927565E0
9.975765630E-1,6.891853213E-1,9.635848045E0,1.610292196E0
1.002540625E0,6.748297215E-1,9.647809982E0,1.581571341E0
1.007503125E0,6.580798626E-1,9.607136726E0,1.674897313E0
1.012465625E0,6.987525821E-1,9.614309311E0,1.689252973E0
1.017428125E0,6.461088061E-1,9.654992104E0,1.773002028E0
1.022392188E0,6.317532063E-1,9.657385826E0,1.825645924E0
1.027356250E0,6.197918057E-1,9.726778984E0,1.756252289E0
1.032318750E0,6.461088061E-1,9.705241203E0,1.787357807E0
1.037282813E0,6.102245450E-1,9.769846916E0,1.689252973E0
1.042243750E0,5.432252288E-1,9.753096581E0,1.646176457E0
1.047207813E0,5.456098914E-1,9.834450722E0,1.650964856E0
1.052170313E0,5.073313117E-1,9.800951958E0,1.622253656E0
1.057132813E0,4.738316536E-1,9.844018936E0,1.586359739E0
1.062096875E0,3.852941096E-1,9.863162994E0,1.555254221E0
1.067059375E0,3.685442507E-1,9.827268600E0,1.493043303E0
1.072023438E0,2.536896169E-1,9.913412094E0,1.445178509E0
1.076985938E0,7.663360238E-2,9.911018372E0,1.292045236E0
1.081950000E0,-1.147971824E-1,1.002348804E1,1.217863441E0
1.086914063E0,-2.822955251E-1,1.002109337E1,1.179575324E0
1.091875000E0,-4.521880746E-1,1.009048748E1,1.150864005E0
1.096839063E0,-5.502929091E-1,1.009766006E1,1.210690260E0
1.101801563E0,-6.364266872E-1,1.003784370E1,1.076691628E0
1.106765625E0,-6.914646029E-1,1.010723686E1,1.016865373E0
1.111728125E0,-7.345410585E-1,1.005938148E1,9.929425120E-1
1.116692188E0,-7.943577766E-1,1.001870060E1,9.546543956E-1
1.121654688E0,-7.776079774E-1,9.973237991E0,8.589437604E-1
1.126617188E0,-8.230690956E-1,9.951700211E0,8.637226820E-1
1.131581250E0,-8.230690956E-1,9.906239510E0,9.163663387E-1
1.136545313E0,-9.331449270E-1,9.951700211E0,9.450871348E-1
1.141507813E0,-9.810001850E-1,9.939739227E0,1.138902545E0
1.146470313E0,-1.033643961E0,9.949306488E0,1.315968156E0
1.151434375E0,-9.738176465E-1,1.001151752E1,1.440399647E0
1.156396875E0,-9.235681295E-1,9.906239510E0,1.457149386E0
1.161359375E0,-8.135018349E-1,9.891883850E0,1.548071623E0
1.166323438E0,-6.388209462E-1,9.867951393E0,1.581571341E0
1.171287500E0,-5.670427084E-1,9.788990021E0,1.710781574E0
1.176250000E0,-4.330440462E-1,9.786596298E0,1.696426034E0
1.181214063E0,-3.110068142E-1,9.798557281E0,1.665320516E0
1.186176563E0,-2.081135809E-1,9.743529320E0,1.710781574E0
1.191139063E0,-1.411142498E-1,9.702846527E0,1.701214314E0
1.196101563E0,9.634267539E-3,9.721991539E0,1.658147454E0
1.201065625E0,9.815269709E-2,9.683703423E0,1.643791914E0
1.206028125E0,1.101237014E-1,9.666953087E0,1.469110847E0
1.210992188E0,2.034401149E-1,9.626279831E0,1.430822849E0
1.215956250E0,1.938728839E-1,9.647809982E0,1.292045236E0
1.220918750E0,2.106227130E-1,9.585598946E0,1.225046039E0
1.225881250E0,1.460079998E-1,9.619097710E0,1.059941769E0
1.230843750E0,1.914786696E-1,9.559281349E0,9.642215967E-1
1.235807813E0,2.297571748E-1,9.590386391E0,9.235489368E-1
1.240770313E0,1.842960715E-1,9.580809593E0,8.565496206E-1
1.245732813E0,1.196909323E-1,9.623887062E0,9.570485950E-1
1.250696875E0,1.531905979E-1,9.635848045E0,9.881540537E-1
1.255660938E0,2.106227130E-1,9.683703423E0,1.016865373E0
1.260623438E0,2.273725420E-1,9.745914459E0,1.052759290E0
1.265585938E0,2.201899439E-1,9.717203140E0,1.009692311E0
1.270550000E0,2.919777036E-1,9.745914459E0,1.103008628E0
1.275512500E0,1.340465695E-1,9.779414177E0,1.335112214E0
1.280476563E0,5.988377333E-2,9.879913330E0,1.586359739E0
1.285439063E0,5.988377333E-2,9.918201447E0,1.641397715E0
1.290401563E0,-2.625960298E-2,9.882307053E0,1.775396347E0
1.295365625E0,-1.429817267E-2,9.949306488E0,1.696426034E0
1.300328125E0,-6.933607906E-2,9.877518654E0,1.516966224E0
1.305292188E0,-4.721365869E-3,9.934949875E0,1.323150754E0
1.310254688E0,-5.258624628E-2,9.911018372E0,1.083864689E0
1.315218750E0,-4.721365869E-3,9.875133514E0,9.355103970E-1
1.320181250E0,-3.583640978E-2,9.844018936E0,8.397997618E-1
1.325143750E0,-9.509769268E-3,9.944517136E0,7.991175056E-1
1.330107813E0,-8.369170874E-2,9.812912941E0,9.977213144E-1
1.335070313E0,-1.315470189E-1,9.918201447E0,1.150864005E0
1.340034375E0,-1.817965209E-1,9.896661758E0,1.394928932E0
1.344996875E0,-2.487958670E-1,9.877518654E0,1.493043303E0
1.349959375E0,-3.229682446E-1,9.882307053E0,1.464322567E0
1.354923438E0,-2.918627560E-1,9.788990021E0,1.445178509E0
1.359885938E0,-2.870743573E-1,9.726778984E0,1.227440238E0
1.364850000E0,-3.540737033E-1,9.760279655E0,9.761926532E-1
1.369812500E0,-3.062183857E-1,9.676529884E0,8.445882201E-1
1.374776563E0,-3.875733614E-1,9.698058128E0,6.962338090E-1
1.379739063E0,-4.330440462E-1,9.698058128E0,6.076962948E-1
1.384701563E0,-4.713225365E-1,9.712413788E0,5.574467778E-1
1.389665625E0,-5.072164536E-1,9.721991539E0,5.359085202E-1
1.394628125E0,-4.593611062E-1,9.609530449E0,5.861580372E-1
1.399592188E0,-5.120047927E-1,9.607136726E0,7.249451280E-1
1.404554688E0,-4.761109650E-1,9.690885544E0,7.895502448E-1
1.409518750E0,-5.024375916E-1,9.657385826E0,8.756936789E-1
1.414481250E0,-4.689379334E-1,9.671741486E0,8.996165395E-1
1.419445313E0,-4.162942171E-1,9.609530449E0,9.402987957E-1
1.424407813E0,-4.162942171E-1,9.678915024E0,1.026442170E0
1.429370313E0,-4.186884165E-1,9.657385826E0,1.110191226E0
1.434334375E0,-4.593611062E-1,9.666953087E0,1.050364971E0
1.439296875E0,-4.521880746E-1,9.645415306E0,1.062336087E0
1.444260938E0,-4.258614480E-1,9.700452805E0,1.112575889E0
1.449223438E0,-4.162942171E-1,9.693280220E0,1.117364407E0
1.454185938E0,-4.330440462E-1,9.664558411E0,1.045586228E0
1.459150000E0,-4.832935631E-1,9.597559929E0,9.618370533E-1
1.464112500E0,-5.000433922E-1,9.616703987E0,9.187605381E-1
1.469076563E0,-5.191778541E-1,9.568848610E0,9.187605381E-1
1.474039063E0,-5.143990517E-1,9.619097710E0,8.732994199E-1
1.479003125E0,-4.976491928E-1,9.597559929E0,9.115875363E-1
1.483965625E0,-5.191778541E-1,9.614309311E0,8.637226820E-1
1.488928125E0,-4.856877327E-1,9.576031685E0,9.379045963E-1
1.493892188E0,-4.689379334E-1,9.530560493E0,9.259431362E-1
1.498854688E0,-3.851887584E-1,9.504242897E0,9.139720798E-1
1.503818750E0,-3.421122730E-1,9.537743568E0,8.948376179E-1
1.508781250E0,-1.817965209E-1,9.609530449E0,8.972222805E-1
1.513745313E0,-1.459026486E-1,9.619097710E0,9.331161380E-1
1.518707813E0,-1.171913818E-1,9.566453934E0,9.785868526E-1
1.523670313E0,-1.626524776E-1,9.544916153E0,1.057547569E0
1.528634375E0,-1.794023216E-1,9.530560493E0,1.256151438E0
1.533596875E0,-1.650466919E-1,9.621492386E0,1.229824781E0
1.538560938E0,-1.171913818E-1,9.643030167E0,1.277689695E0
1.543523438E0,-2.865380608E-2,9.664558411E0,1.222651720E0
1.548485938E0,8.620083332E-2,9.657385826E0,1.122152686E0
1.553450000E0,1.484021842E-1,9.645415306E0,1.138902545E0
1.558412500E0,1.340465695E-1,9.604742050E0,1.201113582E0
1.563376563E0,1.441309415E-2,9.643030167E0,1.366217613E0
1.568339063E0,-3.344221041E-2,9.748308182E0,1.524148822E0
1.573303125E0,-1.076145768E-1,9.846412659E0,1.564821482E0
1.578265625E0,-2.822955251E-1,9.875133514E0,1.607897997E0
1.583228125E0,-4.473996758E-1,9.927767754E0,1.607897997E0
1.588192188E0,-4.450055063E-1,9.930162430E0,1.629426599E0
1.593154688E0,-5.191778541E-1,9.949306488E0,1.653359175E0
1.598118750E0,-4.808993638E-1,9.911018372E0,1.454755306E0
1.603081250E0,-4.521880746E-1,9.903844833E0,1.299218416E0
1.608045313E0,-5.072164536E-1,9.870346069E0,1.100614548E0
1.613007813E0,-5.024375916E-1,9.915806770E0,9.187605381E-1
1.617971875E0,-5.598601103E-1,9.872738838E0,8.206557035E-1
1.622934375E0,-4.880723953E-1,9.889489174E0,7.751946449E-1
1.627896875E0,-4.713225365E-1,9.922988892E0,7.775887847E-1
1.632860938E0,-5.000433922E-1,9.999555588E0,8.158673048E-1
1.637823438E0,-4.689379334E-1,1.009766006E1,8.206557035E-1
1.642787500E0,-5.048221946E-1,1.010962200E1,8.350113630E-1
1.647750000E0,-4.785051644E-1,1.012637234E1,8.206557035E-1
1.652714063E0,-4.856877327E-1,1.014551544E1,7.704062462E-1
1.657676563E0,-4.306498468E-1,1.008330441E1,6.914454103E-1
1.662639063E0,-4.569669068E-1,1.012398720E1,6.914454103E-1
1.667603125E0,-4.378228784E-1,1.009766006E1,7.704062462E-1
1.672565625E0,-4.186884165E-1,1.011201668E1,8.134731650E-1
1.677529688E0,-2.775071263E-1,1.002826691E1,8.900492787E-1
1.682492188E0,-9.325893968E-2,1.005219936E1,9.690100551E-1
1.687454688E0,-2.272576243E-1,1.005219936E1,1.136508465E0
1.692418750E0,-2.248634249E-1,1.000434399E1,1.347073555E0
1.697381250E0,-2.822955251E-1,1.003784370E1,1.572004199E0
1.702345313E0,-3.181893826E-1,1.000195026E1,1.732319832E0
1.707307813E0,-2.894685566E-1,1.003784370E1,1.708397031E0
1.712271875E0,-3.277566135E-1,1.000195026E1,1.746675491E0
1.717234375E0,-3.205740452E-1,9.973237991E0,1.794530749E0
1.722196875E0,-3.708235621E-1,9.865556717E0,1.851962924E0
1.727160938E0,-3.875733614E-1,9.863162994E0,1.751463890E0
1.732123438E0,-4.378228784E-1,9.913412094E0,1.713175774E0
1.737087500E0,-4.210730195E-1,9.989988327E0,1.607897997E0
1.742050000E0,-5.000433922E-1,1.000673866E1,1.545677543E0
1.747012500E0,-5.766099691E-1,9.911018372E0,1.514572024E0
1.751976563E0,-7.656465173E-1,9.956489563E0,1.344689012E0
1.756939063E0,-8.039250374E-1,9.896661758E0,1.373400211E0
1.761901563E0,-9.307506680E-1,9.973237991E0,1.308795214E0
1.766865625E0,-1.055172563E0,9.994767189E0,1.246574640E0
1.771828125E0,-1.079105020E0,1.004023838E1,1.241795778E0
1.776792188E0,-1.131748796E0,1.010005474E1,1.062336087E0
1.781754688E0,-1.103027821E0,1.010962200E1,9.666158557E-1
1.786718750E0,-1.098249078E0,1.007134342E1,1.009692311E0
1.791681250E0,-1.117383599E0,1.004980564E1,1.016865373E0
1.796643750E0,-1.122171879E0,1.002588272E1,1.043192029E0
1.801607813E0,-1.114998937E0,1.006176662E1,1.000115514E0
1.806571875E0,-1.091066360E0,1.000673866E1,1.016865373E0
1.811534375E0,-1.050393820E0,1.008091068E1,9.929425120E-1
1.816496875E0,-1.021672964E0,1.001151752E1,1.059941769E0
1.821460938E0,-9.283565283E-1,1.000195026E1,1.093441486E0
1.826423438E0,-9.092124701E-1,9.989988327E0,1.256151438E0
1.831387500E0,-7.465025187E-1,9.925383568E0,1.387755871E0
1.836350000E0,-6.962530017E-1,9.865556717E0,1.476293445E0
1.841314063E0,-5.670427084E-1,9.875133514E0,1.598321199E0
1.846276563E0,-4.593611062E-1,9.836845398E0,1.670108914E0
1.851240625E0,-3.708235621E-1,9.812912941E0,1.588753939E0
1.856203125E0,-2.129019946E-1,9.839240074E0,1.643791914E0
1.861165625E0,-5.975927413E-2,9.803345680E0,1.598321199E0
1.866128125E0,1.627578288E-1,9.772240639E0,1.531321764E0
1.871092188E0,2.154015303E-1,9.643030167E0,1.526543021E0
1.876054688E0,3.589770198E-1,9.544916153E0,1.385361671E0
1.881018750E0,3.135063350E-1,9.587991714E0,1.430822849E0
1.885981250E0,3.805056810E-1,9.623887062E0,1.485860705E0
1.890945313E0,3.613712192E-1,9.681308746E0,1.543292880E0
1.895907813E0,3.589770198E-1,9.769846916E0,1.684464574E0
1.900870313E0,3.661500514E-1,9.698058128E0,1.670108914E0
1.905834375E0,2.824008763E-1,9.774634361E0,1.684464574E0
1.910796875E0,2.489012182E-1,9.791384697E0,1.679676175E0
1.915759375E0,2.584780157E-1,9.762663841E0,1.739502430E0
1.920723438E0,2.877830528E-2,9.915806770E0,1.653359175E0
1.925685938E0,-6.215347722E-2,1.000673866E1,1.634215117E0
1.930650000E0,-2.416132689E-1,1.004023838E1,1.473899245E0
1.935614063E0,-4.330440462E-1,1.015509319E1,1.449966788E0
1.940576563E0,-5.048221946E-1,1.022926426E1,1.351862073E0
1.945540625E0,-5.526775122E-1,1.016705418E1,1.258545637E0
1.950501563E0,-6.220710278E-1,1.019576550E1,1.222651720E0
1.955467188E0,-6.483976841E-1,1.016705418E1,1.081470490E0
1.960428125E0,-7.656465173E-1,1.020773602E1,9.259431362E-1
1.965392188E0,-8.135018349E-1,1.017423630E1,7.895502448E-1
1.970354688E0,-9.451063275E-1,1.021969795E1,6.842628121E-1
1.975317188E0,-1.002528906E0,1.017662144E1,5.000146627E-1
1.980281250E0,-1.019278646E0,1.012159252E1,3.899484277E-1
1.985243750E0,-1.004923105E0,1.004263210E1,3.133818507E-1
1.990207813E0,-9.953558445E-1,1.004980564E1,3.205548823E-1
1.995171875E0,-9.833943844E-1,9.925383568E0,3.779869974E-1
2.000134375E0,-9.522793293E-1,9.851201057E0,4.593419433E-1
2.005098438E0,-9.163950682E-1,9.855990410E0,4.976204634E-1
2.010060938E0,-8.350304961E-1,9.793779373E0,6.029078960E-1
2.015025000E0,-7.871752381E-1,9.748308182E0,8.039059043E-1
2.019987500E0,-7.536755204E-1,9.650202751E0,7.895502448E-1
2.024950000E0,-6.795032024E-1,9.686098099E0,9.211547375E-1
2.029912500E0,-6.890703440E-1,9.628664970E0,9.283373356E-1
2.034876563E0,-5.718215108E-1,9.621492386E0,9.857599139E-1
2.039839063E0,-4.832935631E-1,9.604742050E0,9.929425120E-1
2.044801563E0,-5.550717115E-1,9.549704552E0,1.284862638E0
2.049765625E0,-6.651475430E-1,9.590386391E0,1.555254221E0
2.054728125E0,-6.483976841E-1,9.585598946E0,1.737108231E0
2.059692188E0,-6.603591442E-1,9.645415306E0,1.938106298E0
2.064654688E0,-6.531764865E-1,9.638241768E0,2.021855354E0
2.069618750E0,-6.412150860E-1,9.597559929E0,2.043384075E0
2.074581250E0,-5.550717115E-1,9.592781067E0,1.938106298E0
2.079543750E0,-5.096106529E-1,9.535348892E0,1.825645924E0
2.084507813E0,-4.473996758E-1,9.501849174E0,1.648570657E0
2.089470313E0,-3.038241863E-1,9.487493515E0,1.605503798E0
2.094434375E0,-2.679399252E-1,9.520993233E0,1.380573392E0
2.099396875E0,-2.176903933E-1,9.525781631E0,1.213074923E0
2.104359375E0,-1.961521655E-1,9.530560493E0,1.093441486E0
2.109323438E0,-2.392190546E-1,9.561666489E0,9.737984538E-1
2.114287500E0,-2.368248552E-1,9.532955170E0,9.642215967E-1
2.119251563E0,-3.157951832E-1,9.602347374E0,9.331161380E-1
2.124214063E0,-4.162942171E-1,9.674136162E0,9.953366518E-1
2.129176563E0,-4.426112771E-1,9.654992104E0,1.086258888E0
2.134139063E0,-4.186884165E-1,9.707635880E0,1.172402263E0
2.139101563E0,-3.492948711E-1,9.736346245E0,1.222651720E0
2.144067188E0,-3.397180736E-1,9.736346245E0,1.191546321E0
2.149028125E0,-3.181893826E-1,9.724386215E0,1.210690260E0
2.153992188E0,-2.631514966E-1,9.738740921E0,1.062336087E0
2.158954688E0,-1.195855886E-1,9.781807899E0,1.062336087E0
2.163918750E0,-7.650911063E-2,9.824884415E0,1.081470490E0
2.168882813E0,-3.104800731E-2,9.805740356E0,1.057547569E0
2.173845313E0,-7.890331000E-2,9.729164124E0,1.057547569E0
2.178807813E0,-5.019204319E-2,9.784202576E0,1.184363604E0
2.183771875E0,-3.583640978E-2,9.815307617E0,1.253757238E0
2.188735938E0,4.791276529E-2,9.808135033E0,1.478678107E0
2.193698438E0,4.845864139E-3,9.863162994E0,1.665320516E0
2.198660938E0,1.202846877E-2,9.915806770E0,1.832818866E0
2.203623438E0,-2.386540174E-2,9.906239510E0,1.995528817E0
2.208585938E0,-7.115567569E-3,9.839240074E0,2.050566673E0
2.213550000E0,-9.509769268E-3,9.872738838E0,2.000317335E0
2.218514063E0,5.988377333E-2,9.901451111E0,1.866318464E0
2.223476563E0,1.651520431E-1,9.824884415E0,1.758646488E0
2.228440625E0,1.771230400E-1,9.777029037E0,1.682070255E0
2.233403125E0,2.297571748E-1,9.693280220E0,1.526543021E0
2.238367188E0,1.866902709E-1,9.719596863E0,1.452361107E0
2.243329688E0,1.866902709E-1,9.700452805E0,1.488254905E0
2.248293750E0,2.297571748E-1,9.753096581E0,1.356650352E0
2.253256250E0,3.063333035E-1,9.650202751E0,1.201113582E0
2.258218750E0,2.800066769E-1,9.633453369E0,1.126941204E0
2.263182813E0,3.948709071E-1,9.712413788E0,1.213074923E0
2.268145313E0,3.972555101E-1,9.707635880E0,1.318362474E0
2.273109375E0,4.044381380E-1,9.683703423E0,1.464322567E0
2.278070313E0,4.403319955E-1,9.748308182E0,1.684464574E0
2.283034375E0,3.613712192E-1,9.741134644E0,1.811280608E0
2.287998438E0,2.560837865E-1,9.698058128E0,1.985961556E0
2.292960938E0,2.297571748E-1,9.738740921E0,1.976384759E0
2.297925000E0,1.723346412E-1,9.767452240E0,1.969211817E0
2.302887500E0,1.460079998E-1,9.753096581E0,1.816069007E0
2.307850000E0,1.699404269E-1,9.777029037E0,1.646176457E0
2.312814063E0,5.988377333E-2,9.710029602E0,1.528927565E0
2.317776563E0,-7.115567569E-3,9.805740356E0,1.454755306E0
2.322739063E0,-2.147120051E-2,9.834450722E0,1.380573392E0
2.327703125E0,-8.608591557E-2,9.855990410E0,1.457149386E0
2.332667188E0,-9.804734588E-2,9.836845398E0,1.382967472E0
2.337628125E0,-1.147971824E-1,9.887095451E0,1.323150754E0
2.342593750E0,-1.722197086E-1,9.784202576E0,1.304006696E0
2.347554688E0,-2.679399252E-1,9.870346069E0,1.280074358E0
2.352518750E0,-2.942569554E-1,9.841633797E0,1.263324499E0
2.357481250E0,-4.043232203E-1,9.827268600E0,1.356650352E0
2.362445313E0,-4.426112771E-1,9.901451111E0,1.270507097E0
2.367407813E0,-5.143990517E-1,9.896661758E0,1.284862638E0
2.372370313E0,-5.550717115E-1,9.858384132E0,1.335112214E0
2.377334375E0,-5.574659705E-1,9.832057953E0,1.148469806E0
2.382298438E0,-4.737167358E-1,9.791384697E0,1.114970207E0
2.387260938E0,-4.139000177E-1,9.760279655E0,1.057547569E0
2.392225000E0,-3.588621020E-1,9.690885544E0,9.761926532E-1
2.397187500E0,-3.923617899E-1,9.681308746E0,9.522601962E-1
2.402150000E0,-3.516891003E-1,9.638241768E0,1.055153489E0
2.407112500E0,-3.062183857E-1,9.714808464E0,1.148469806E0
2.412078125E0,-2.272576243E-1,9.671741486E0,1.241795778E0
2.417040625E0,-1.937579513E-1,9.616703987E0,1.270507097E0
2.422003125E0,-1.171913818E-1,9.628664970E0,1.215469122E0
2.426965625E0,-9.509769268E-3,9.595166206E0,1.138902545E0
2.431929688E0,1.149025261E-1,9.494675636E0,1.012086511E0
2.436892188E0,1.771230400E-1,9.497060776E0,9.498660564E-1
2.441854688E0,7.184520364E-2,9.549704552E0,1.000115514E0
2.446818750E0,3.355713189E-2,9.602347374E0,1.100614548E0
2.451781250E0,2.451662440E-3,9.635848045E0,1.258545637E0
2.456745313E0,-9.325893968E-2,9.698058128E0,1.246574640E0
2.461709375E0,-1.100087836E-1,9.688490868E0,1.380573392E0
2.466671875E0,-1.817965209E-1,9.788990021E0,1.454755306E0
2.471635938E0,-2.105077952E-1,9.733952522E0,1.478678107E0
2.476596875E0,-2.799013257E-1,9.717203140E0,1.435611248E0
2.481560938E0,-1.913637519E-1,9.810519218E0,1.347073555E0
2.486525000E0,-1.865849346E-1,9.741134644E0,1.318362474E0
2.491487500E0,-1.961521655E-1,9.791384697E0,1.320756555E0
2.496451563E0,-2.942569554E-1,9.762663841E0,1.356650352E0
2.501414063E0,-2.942569554E-1,9.803345680E0,1.464322567E0
2.506376563E0,-3.110068142E-1,9.820096016E0,1.536110282E0
2.511339063E0,-3.804003298E-1,9.817702293E0,1.557648420E0
2.516303125E0,-4.043232203E-1,9.836845398E0,1.588753939E0
2.521265625E0,-3.971501887E-1,9.899056435E0,1.660541654E0
2.526229688E0,-4.378228784E-1,9.853595734E0,1.595927000E0
2.531192188E0,-4.497938752E-1,9.887095451E0,1.476293445E0
2.536156250E0,-4.282556474E-1,9.884700775E0,1.327939153E0
2.541118750E0,-3.684388995E-1,9.855990410E0,1.382967472E0
2.546081250E0,-3.875733614E-1,9.913412094E0,1.282468557E0
2.551045313E0,-3.660447001E-1,9.870346069E0,1.268112898E0
2.556007813E0,-3.780061305E-1,9.887095451E0,1.246574640E0
2.560971875E0,-3.684388995E-1,9.817702293E0,1.268112898E0
2.565934375E0,-3.421122730E-1,9.805740356E0,1.330323815E0
2.570896875E0,-3.229682446E-1,9.791384697E0,1.375794411E0
2.575860938E0,-3.277566135E-1,9.805740356E0,1.428428531E0
2.580823438E0,-2.822955251E-1,9.875133514E0,1.507398963E0
2.585787500E0,-2.152961940E-1,9.800951958E0,1.540898681E0
2.590750000E0,-1.698351055E-1,9.822490692E0,1.579177141E0
2.595712500E0,-1.937579513E-1,9.808135033E0,1.545677543E0
2.600676563E0,-1.674408913E-1,9.800951958E0,1.478678107E0
2.605640625E0,-2.224692255E-1,9.753096581E0,1.519360304E0
2.610603125E0,-3.014395833E-1,9.781807899E0,1.509793162E0
2.615567188E0,-3.445064723E-1,9.781807899E0,1.392544270E0
2.620529688E0,-3.516891003E-1,9.772240639E0,1.292045236E0
2.625493750E0,-3.660447001E-1,9.781807899E0,1.301612496E0
2.630456250E0,-2.990453839E-1,9.721991539E0,1.268112898E0
2.635418750E0,-2.799013257E-1,9.695664406E0,1.186757922E0
2.640382813E0,-1.674408913E-1,9.698058128E0,1.129325747E0
2.645345313E0,-1.243644133E-1,9.686098099E0,1.086258888E0
2.650307813E0,2.159569971E-2,9.633453369E0,1.105402946E0
2.655271875E0,1.388349682E-1,9.573637009E0,1.196325064E0
2.660234375E0,1.531905979E-1,9.566453934E0,1.363823533E0
2.665198438E0,2.847950757E-1,9.657385826E0,1.306401014E0
2.670160938E0,2.417281866E-1,9.662164688E0,1.440399647E0
2.675123438E0,2.584780157E-1,9.638241768E0,1.624647856E0
2.680087500E0,1.819018722E-1,9.743529320E0,1.583965540E0
2.685050000E0,1.077295020E-1,9.800951958E0,1.650964856E0
2.690014063E0,3.116292879E-2,9.812912941E0,1.615071058E0
2.694976563E0,-1.147971824E-1,9.805740356E0,1.670108914E0
2.699940625E0,-1.985463500E-1,9.800951958E0,1.552860141E0
2.704903125E0,-2.248634249E-1,9.882307053E0,1.562427282E0
2.709867188E0,-3.325450420E-1,9.908634186E0,1.426043987E0
2.714829688E0,-3.923617899E-1,9.949306488E0,1.335112214E0
2.719792188E0,-5.024375916E-1,9.992383003E0,1.191546321E0
2.724756250E0,-5.574659705E-1,9.973237991E0,1.110191226E0
2.729718750E0,-5.981481671E-1,9.963662148E0,1.031220913E0
2.734682813E0,-6.507919431E-1,9.980412483E0,9.211547375E-1
2.739645313E0,-6.795032024E-1,9.930162430E0,7.440891862E-1
2.744607813E0,-6.555707455E-1,9.958883286E0,6.962338090E-1
2.749571875E0,-5.598601103E-1,9.836845398E0,7.728003860E-1
2.754534375E0,-5.000433922E-1,9.827268600E0,7.895502448E-1
2.759498438E0,-3.181893826E-1,9.798557281E0,8.517611623E-1
2.764460938E0,-2.918627560E-1,9.832057953E0,9.929425120E-1
2.769425000E0,-1.889695525E-1,9.841633797E0,1.004903913E0
2.774387500E0,-1.339412183E-1,9.812912941E0,1.095826149E0
2.779350000E0,4.073973373E-2,9.741134644E0,1.272901297E0
2.784314063E0,8.859504014E-2,9.712413788E0,1.414072990E0
2.789276563E0,1.795076579E-1,9.688490868E0,1.598321199E0
2.794240625E0,2.369397730E-1,9.690885544E0,1.770607948E0
2.799203125E0,2.824008763E-1,9.719596863E0,1.952461958E0
2.804167188E0,3.709384501E-1,9.654992104E0,1.964423299E0
2.809129688E0,3.805056810E-1,9.695664406E0,2.067316532E0
2.814092188E0,4.163995683E-1,9.688490868E0,2.184565544E0
2.819056250E0,4.833988845E-1,9.717203140E0,2.167815685E0
2.824018750E0,3.948709071E-1,9.671741486E0,2.074499369E0
2.828982813E0,3.374387920E-1,9.717203140E0,2.012278795E0
2.833945313E0,2.010459006E-1,9.683703423E0,1.847174406E0
2.838909375E0,1.029410958E-1,9.721991539E0,1.665320516E0
2.843871875E0,-2.386540174E-2,9.741134644E0,1.452361107E0
2.848834375E0,2.638410218E-2,9.779414177E0,1.213074923E0
2.853798438E0,-1.028357521E-1,9.805740356E0,1.093441486E0
2.858760938E0,-1.578640938E-1,9.793779373E0,9.259431362E-1
2.863725000E0,-2.200750262E-1,9.851201057E0,8.780878186E-1
2.868687500E0,-2.799013257E-1,9.867951393E0,9.953366518E-1
2.873651563E0,-3.253624141E-1,9.903844833E0,1.031220913E0
2.878614063E0,-3.157951832E-1,9.863162994E0,1.143691063E0
2.883576563E0,-3.134010136E-1,9.870346069E0,1.213074923E0
2.888540625E0,-2.918627560E-1,9.918201447E0,1.349467874E0
2.893503125E0,-3.086126149E-1,9.870346069E0,1.347073555E0
2.898467188E0,-3.325450420E-1,9.894268990E0,1.442793846E0
2.903429688E0,-3.038241863E-1,9.903844833E0,1.488254905E0
2.908393750E0,-2.535746992E-1,9.875133514E0,1.528927565E0
2.913356250E0,-1.746139228E-1,9.920595169E0,1.557648420E0
2.918318750E0,-1.530852467E-1,9.872738838E0,1.579177141E0
2.923282813E0,-1.195855886E-1,9.851201057E0,1.543292880E0
2.928245313E0,-1.171913818E-1,9.896661758E0,1.612676740E0
2.933209375E0,-5.258624628E-2,9.939739227E0,1.717964292E0
2.938171875E0,-2.865380608E-2,9.913412094E0,1.751463890E0
2.943135938E0,-3.583640978E-2,9.934949875E0,1.698820233E0
2.948098438E0,7.240065839E-3,9.891883850E0,1.703608632E0
2.953060938E0,-7.411490381E-2,9.870346069E0,1.624647856E0
2.958025000E0,-1.052203774E-1,9.875133514E0,1.674897313E0
2.962987500E0,-1.076145768E-1,9.870346069E0,1.552860141E0
2.967950000E0,-1.052203774E-1,9.844018936E0,1.603109598E0
2.972914063E0,-1.315470189E-1,9.822490692E0,1.548071623E0
2.977876563E0,-1.195855886E-1,9.832057953E0,1.562427282E0
2.982840625E0,-1.411142498E-1,9.745914459E0,1.488254905E0
2.987803125E0,-1.746139228E-1,9.788990021E0,1.327939153E0
2.992767188E0,-1.865849346E-1,9.774634361E0,1.234613180E0
2.997729688E0,-2.009405643E-1,9.774634361E0,1.181969523E0
3.002692188E0,-1.171913818E-1,9.719596863E0,1.081470490E0
3.007656250E0,-8.847054094E-2,9.748308182E0,9.714042544E-1
3.012618750E0,-1.076145768E-1,9.698058128E0,1.021653771E0
3.017582813E0,-1.411142498E-1,9.712413788E0,9.833656549E-1
3.022545313E0,-8.129751682E-2,9.693280220E0,9.642215967E-1
3.027509375E0,-1.195855886E-1,9.645415306E0,1.071903229E0
3.032471875E0,-1.841907203E-1,9.662164688E0,1.225046039E0
3.037434375E0,-1.387200505E-1,9.690885544E0,1.272901297E0
3.042398438E0,-1.985463500E-1,9.671741486E0,1.354256272E0
3.047360938E0,-1.985463500E-1,9.645415306E0,1.335112214E0
3.052325000E0,-1.482968628E-1,9.688490868E0,1.440399647E0
3.057287500E0,-1.100087836E-1,9.604742050E0,1.373400211E0
3.062251563E0,-1.219702139E-1,9.631059647E0,1.371006131E0
3.067214063E0,-1.698351055E-1,9.619097710E0,1.366217613E0
3.072176563E0,-1.985463500E-1,9.686098099E0,1.304006696E0
3.077140625E0,-2.368248552E-1,9.695664406E0,1.280074358E0
3.082103125E0,-2.846897244E-1,9.698058128E0,1.318362474E0
3.087067188E0,-3.588621020E-1,9.678915024E0,1.189152122E0
3.092029688E0,-5.096106529E-1,9.681308746E0,1.215469122E0
3.096992188E0,-5.526775122E-1,9.712413788E0,1.170008063E0
3.101954688E0,-5.813983679E-1,9.707635880E0,1.146075726E0
3.106918750E0,-5.239662528E-1,9.755491257E0,1.208296180E0
3.111882813E0,-5.574659705E-1,9.793779373E0,1.148469806E0
3.116845313E0,-5.526775122E-1,9.793779373E0,1.138902545E0
3.121809375E0,-4.952549636E-1,9.784202576E0,1.098220348E0
3.126771875E0,-5.670427084E-1,9.824884415E0,1.174796462E0
3.131734375E0,-5.000433922E-1,9.796163559E0,1.141296744E0
3.136698438E0,-5.526775122E-1,9.827268600E0,1.205901980E0
3.141660938E0,-5.383219123E-1,9.875133514E0,1.308795214E0
3.146623438E0,-5.335431099E-1,9.903844833E0,1.265718579E0
3.151587500E0,-5.550717115E-1,9.922988892E0,1.301612496E0
3.156551563E0,-4.785051644E-1,9.908634186E0,1.404505730E0
3.161514063E0,-4.737167358E-1,9.855990410E0,1.399717450E0
3.166478125E0,-3.756119311E-1,9.839240074E0,1.258545637E0
3.171440625E0,-2.535746992E-1,9.860768318E0,1.284862638E0
3.176404688E0,-1.339412183E-1,9.834450722E0,1.268112898E0
3.181367188E0,4.791276529E-2,9.784202576E0,1.390150189E0
3.186329688E0,1.172967330E-1,9.791384697E0,1.536110282E0
3.191293750E0,8.859504014E-2,9.810519218E0,1.627041936E0
3.196256250E0,1.149025261E-1,9.896661758E0,1.847174406E0
3.201220313E0,1.555848122E-1,9.889489174E0,1.983567357E0
3.206182813E0,7.902780920E-2,9.922988892E0,1.966817498E0
3.211146875E0,6.945100427E-2,9.853595734E0,2.017066956E0
3.216109375E0,-6.215347722E-2,9.920595169E0,1.940500498E0
3.221071875E0,-6.933607906E-2,9.920595169E0,1.840001464E0
3.226034375E0,-4.779784381E-2,9.858384132E0,1.720358372E0
3.230998438E0,-1.746139228E-1,9.891883850E0,1.631820798E0
3.235960938E0,-1.722197086E-1,9.925383568E0,1.471505165E0
3.240923438E0,-1.506910622E-1,9.889489174E0,1.272901297E0
3.245887500E0,-1.339412183E-1,9.853595734E0,1.158046603E0
3.250851563E0,-1.506910622E-1,9.846412659E0,1.004903913E0
3.255814063E0,-1.554698795E-1,9.805740356E0,1.031220913E0
3.260778125E0,-2.272576243E-1,9.820096016E0,9.929425120E-1
3.265740625E0,-1.985463500E-1,9.760279655E0,9.929425120E-1
3.270703125E0,-1.674408913E-1,9.736346245E0,9.929425120E-1
3.275665625E0,-2.272576243E-1,9.736346245E0,1.064720750E0
3.280629688E0,-2.416132689E-1,9.810519218E0,1.272901297E0
3.285593750E0,-2.224692255E-1,9.781807899E0,1.361438870E0
3.290556250E0,-1.722197086E-1,9.851201057E0,1.440399647E0
3.295518750E0,-1.124029830E-1,9.769846916E0,1.430822849E0
3.300481250E0,-7.172070444E-2,9.748308182E0,1.342294812E0
3.305445313E0,-3.104800731E-2,9.688490868E0,1.320756555E0
3.310407813E0,6.227797270E-2,9.678915024E0,1.244190097E0
3.315371875E0,6.466259807E-2,9.678915024E0,1.246574640E0
3.320334375E0,1.101237014E-1,9.654992104E0,1.253757238E0
3.325296875E0,8.859504014E-2,9.647809982E0,1.256151438E0
3.330260938E0,8.859504014E-2,9.693280220E0,1.246574640E0
3.335225000E0,5.270116776E-2,9.700452805E0,1.253757238E0
3.340187500E0,-1.669237576E-2,9.777029037E0,1.426043987E0
3.345151563E0,-8.608591557E-2,9.796163559E0,1.416467190E0
3.350114063E0,-1.650466919E-1,9.820096016E0,1.521754622E0
3.355078125E0,-2.272576243E-1,9.867951393E0,1.497822165E0
3.360039063E0,-3.445064723E-1,9.829663277E0,1.452361107E0
3.365003125E0,-3.875733614E-1,9.851201057E0,1.409294248E0
3.369965625E0,-4.210730195E-1,9.736346245E0,1.318362474E0
3.374929688E0,-3.875733614E-1,9.822490692E0,1.225046039E0
3.379892188E0,-4.808993638E-1,9.867951393E0,1.248968840E0
3.384856250E0,-4.641495049E-1,9.820096016E0,1.323150754E0
3.389820313E0,-4.713225365E-1,9.839240074E0,1.318362474E0
3.394782813E0,-4.617553055E-1,9.915806770E0,1.368611932E0
3.399745313E0,-4.856877327E-1,9.932557106E0,1.330323815E0
3.404709375E0,-4.545727372E-1,9.848807335E0,1.246574640E0
3.409671875E0,-4.426112771E-1,9.860768318E0,1.086258888E0
3.414635938E0,-3.612563312E-1,9.836845398E0,9.929425120E-1
3.419598438E0,-3.086126149E-1,9.788990021E0,9.761926532E-1
3.424562500E0,-2.392190546E-1,9.820096016E0,1.002509713E0
3.429525000E0,-2.105077952E-1,9.791384697E0,1.067114830E0
3.434489063E0,-1.722197086E-1,9.765057564E0,1.091047287E0
3.439451563E0,-1.578640938E-1,9.798557281E0,1.198719382E0
3.444414063E0,-3.104800731E-2,9.779414177E0,1.337506413E0
3.449378125E0,-4.779784381E-2,9.762663841E0,1.277689695E0
3.454340625E0,2.398990095E-2,9.731558800E0,1.277689695E0
3.459303125E0,8.859504014E-2,9.666953087E0,1.330323815E0
3.464267188E0,1.196909323E-1,9.712413788E0,1.359044671E0
3.469229688E0,1.292581707E-1,9.688490868E0,1.380573392E0
3.474192188E0,1.388349682E-1,9.681308746E0,1.280074358E0
3.479156250E0,8.380663395E-2,9.650202751E0,1.320756555E0
3.484118750E0,-3.344221041E-2,9.688490868E0,1.382967472E0
3.489081250E0,-6.215347722E-2,9.698058128E0,1.380573392E0
3.494045313E0,-1.052203774E-1,9.688490868E0,1.404505730E0
3.499007813E0,-6.694187969E-2,9.714808464E0,1.435611248E0
3.503971875E0,-5.258624628E-2,9.700452805E0,1.418861270E0
3.508934375E0,-9.565314651E-2,9.688490868E0,1.430822849E0
3.513898438E0,-1.746139228E-1,9.652597427E0,1.411678791E0
3.518860938E0,-1.841907203E-1,9.643030167E0,1.426043987E0
3.523825000E0,-2.392190546E-1,9.688490868E0,1.277689695E0
3.528787500E0,-2.942569554E-1,9.721991539E0,1.330323815E0
3.533751563E0,-3.564679027E-1,9.712413788E0,1.268112898E0
3.538714063E0,-4.306498468E-1,9.765057564E0,1.119758487E0
3.543676563E0,-4.713225365E-1,9.760279655E0,1.036009431E0
3.548640625E0,-4.689379334E-1,9.745914459E0,1.091047287E0
3.553603125E0,-4.354382753E-1,9.788990021E0,1.055153489E0
3.558567188E0,-4.139000177E-1,9.772240639E0,1.040797710E0
3.563531250E0,-4.162942171E-1,9.827268600E0,1.103008628E0
3.568492188E0,-3.947559893E-1,9.812912941E0,1.227440238E0
3.573456250E0,-3.612563312E-1,9.812912941E0,1.270507097E0
3.578418750E0,-3.660447001E-1,9.817702293E0,1.315968156E0
3.583382813E0,-3.229682446E-1,9.827268600E0,1.299218416E0
3.588345313E0,-3.014395833E-1,9.853595734E0,1.301612496E0
3.593307813E0,-2.894685566E-1,9.913412094E0,1.354256272E0
3.598271875E0,-3.684388995E-1,9.836845398E0,1.311189294E0
3.603234375E0,-3.804003298E-1,9.829663277E0,1.325544953E0
3.608198438E0,-4.067174196E-1,9.894268990E0,1.397323132E0
3.613160938E0,-4.043232203E-1,9.942132950E0,1.335112214E0
3.618125000E0,-3.660447001E-1,9.927767754E0,1.320756555E0
3.623087500E0,-3.540737033E-1,9.958883286E0,1.311189294E0
3.628050000E0,-2.822955251E-1,9.992383003E0,1.225046039E0
3.633014063E0,-2.559688985E-1,9.985199928E0,1.153258204E0
3.637976563E0,-2.535746992E-1,9.894268990E0,1.227440238E0
3.642940625E0,-1.746139228E-1,9.946911812E0,1.265718579E0
3.647903125E0,-1.913637519E-1,9.879913330E0,1.327939153E0
3.652867188E0,-2.129019946E-1,9.889489174E0,1.404505730E0
3.657829688E0,-3.205740452E-1,9.913412094E0,1.483466506E0
3.662793750E0,-2.775071263E-1,9.973237991E0,1.454755306E0
3.667756250E0,-3.325450420E-1,9.961267471E0,1.421255589E0
3.672718750E0,-3.205740452E-1,9.973237991E0,1.404505730E0
3.677682813E0,-4.569669068E-1,9.951700211E0,1.361438870E0
3.682645313E0,-4.737167358E-1,9.925383568E0,1.272901297E0
3.687609375E0,-5.024375916E-1,9.903844833E0,1.141296744E0
3.692573438E0,-4.545727372E-1,9.865556717E0,1.045586228E0
3.697535938E0,-4.234672487E-1,9.820096016E0,1.016865373E0
3.702498438E0,-4.426112771E-1,9.855990410E0,1.033615232E0
3.707462500E0,-4.641495049E-1,9.793779373E0,1.045586228E0
3.712425000E0,-3.564679027E-1,9.757884979E0,1.057547569E0
3.717387500E0,-3.110068142E-1,9.788990021E0,1.129325747E0
3.722350000E0,-2.535746992E-1,9.827268600E0,1.210690260E0
3.727314063E0,-1.937579513E-1,9.786596298E0,1.394928932E0
3.732278125E0,-1.363354176E-1,9.786596298E0,1.335112214E0
3.737240625E0,-5.258624628E-2,9.798557281E0,1.318362474E0
3.742204688E0,-3.104800731E-2,9.863162994E0,1.292045236E0
3.747167188E0,-3.344221041E-2,9.820096016E0,1.335112214E0
3.752129688E0,-3.104800731E-2,9.824884415E0,1.275295496E0
3.757092188E0,-3.104800731E-2,9.784202576E0,1.418861270E0
3.762057813E0,-5.258624628E-2,9.815307617E0,1.392544270E0
3.767018750E0,-1.435084492E-1,9.808135033E0,1.433217049E0
3.771982813E0,-1.435084492E-1,9.858384132E0,1.461928368E0
3.776945313E0,-1.219702139E-1,9.911018372E0,1.531321764E0
3.781909375E0,-1.435084492E-1,9.927767754E0,1.509793162E0
3.786871875E0,-1.746139228E-1,9.980412483E0,1.411678791E0
3.791834375E0,-2.583630979E-1,9.894268990E0,1.476293445E0
3.796798438E0,-3.540737033E-1,9.944517136E0,1.320756555E0
3.801760938E0,-3.612563312E-1,9.894268990E0,1.452361107E0
3.806725000E0,-3.397180736E-1,9.865556717E0,1.315968156E0
3.811687500E0,-2.942569554E-1,9.915806770E0,1.277689695E0
3.816651563E0,-2.751129270E-1,9.879913330E0,1.217863441E0
3.821614063E0,-2.607572973E-1,9.877518654E0,1.153258204E0
3.826576563E0,-1.865849346E-1,9.855990410E0,1.093441486E0
3.831540625E0,-1.937579513E-1,9.793779373E0,1.162825465E0
3.836503125E0,-1.985463500E-1,9.860768318E0,1.067114830E0
3.841467188E0,-1.961521655E-1,9.784202576E0,1.138902545E0
3.846429688E0,-1.794023216E-1,9.829663277E0,1.248968840E0
3.851392188E0,-8.847054094E-2,9.855990410E0,1.253757238E0
3.856356250E0,-6.694187969E-2,9.891883850E0,1.330323815E0
3.861318750E0,-9.565314651E-2,9.896661758E0,1.533716083E0
3.866282813E0,-7.650911063E-2,9.882307053E0,1.497822165E0
3.871245313E0,-5.975927413E-2,9.894268990E0,1.509793162E0
3.876209375E0,-5.497087166E-2,9.887095451E0,1.536110282E0
3.881171875E0,4.073973373E-2,9.875133514E0,1.483466506E0
3.886135938E0,1.077295020E-1,9.817702293E0,1.452361107E0
3.891098438E0,1.819018722E-1,9.769846916E0,1.280074358E0
3.896062500E0,2.154015303E-1,9.705241203E0,1.213074923E0
3.901025000E0,1.986517012E-1,9.652597427E0,1.143691063E0
3.905987500E0,1.699404269E-1,9.626279831E0,1.165219545E0
3.910951563E0,6.227797270E-2,9.695664406E0,1.062336087E0
3.915914063E0,7.902780920E-2,9.707635880E0,1.153258204E0
3.920878125E0,-1.190397050E-2,9.745914459E0,1.131719947E0
3.925840625E0,-6.694187969E-2,9.714808464E0,1.088653088E0
3.930803125E0,-1.650466919E-1,9.765057564E0,1.074297428E0
3.935767188E0,-1.794023216E-1,9.784202576E0,1.016865373E0
3.940729688E0,-1.124029830E-1,9.769846916E0,9.881540537E-1
3.945693750E0,-1.602582783E-1,9.762663841E0,8.685110211E-1
3.950656250E0,-2.081135809E-1,9.805740356E0,9.618370533E-1
3.955618750E0,-1.937579513E-1,9.817702293E0,9.714042544E-1
3.960582813E0,-1.865849346E-1,9.836845398E0,9.737984538E-1
3.965545313E0,-2.081135809E-1,9.896661758E0,1.062336087E0
3.970509375E0,-2.535746992E-1,9.853595734E0,1.009692311E0
3.975471875E0,-2.942569554E-1,9.822490692E0,1.045586228E0
3.980435938E0,-2.727187276E-1,9.848807335E0,1.074297428E0
3.985398438E0,-2.799013257E-1,9.800951958E0,1.110191226E0
3.990360938E0,-2.511900663E-1,9.796163559E0,1.174796462E0
3.995325000E0,-2.535746992E-1,9.848807335E0,1.237007499E0
4.000287500E0,-2.631514966E-1,9.829663277E0,1.325544953E0
4.005251563E0,-2.703245282E-1,9.836845398E0,1.416467190E0
4.010214063E0,-2.703245282E-1,9.851201057E0,1.385361671E0
4.015178125E0,-2.368248552E-1,9.865556717E0,1.454755306E0
4.020140625E0,-2.918627560E-1,9.800951958E0,1.461928368E0
4.025103125E0,-2.535746992E-1,9.858384132E0,1.423649788E0
4.030067188E0,-1.770081222E-1,9.891883850E0,1.371006131E0
4.035029688E0,-1.889695525E-1,9.824884415E0,1.304006696E0
4.039993750E0,-1.817965209E-1,9.846412659E0,1.284862638E0
4.044956250E0,-1.435084492E-1,9.810519218E0,1.203507662E0
4.049920313E0,-1.817965209E-1,9.765057564E0,1.172402263E0
4.054882813E0,-1.937579513E-1,9.827268600E0,1.158046603E0
4.059846875E0,-1.363354176E-1,9.834450722E0,1.237007499E0
4.064809375E0,-1.339412183E-1,9.820096016E0,1.260939837E0
4.069771875E0,-7.411490381E-2,9.791384697E0,1.272901297E0
4.074735938E0,-1.650466919E-1,9.760279655E0,1.227440238E0
4.079698438E0,-1.459026486E-1,9.815307617E0,1.244190097E0
4.084660938E0,-1.100087836E-1,9.724386215E0,1.205901980E0
4.089625000E0,-1.243644133E-1,9.724386215E0,1.165219545E0
4.094587500E0,-5.497087166E-2,9.731558800E0,1.100614548E0
4.099551563E0,5.988377333E-2,9.748308182E0,1.117364407E0
4.104514063E0,8.141243458E-2,9.640635490E0,1.050364971E0
4.109478125E0,9.576806426E-2,9.640635490E0,1.016865373E0
4.114440625E0,1.603731960E-1,9.583204269E0,9.402987957E-1
4.119404688E0,2.082285136E-1,9.587991714E0,9.618370533E-1
4.124367188E0,2.369397730E-1,9.628664970E0,9.977213144E-1
4.129329688E0,3.206889629E-1,9.599953651E0,9.929425120E-1
4.134293750E0,2.824008763E-1,9.635848045E0,9.570485950E-1
4.139256250E0,2.465070039E-1,9.623887062E0,1.174796462E0
4.144220313E0,3.230831623E-1,9.631059647E0,1.256151438E0
4.149182813E0,3.254773617E-1,9.631059647E0,1.304006696E0
4.154145313E0,3.254773617E-1,9.604742050E0,1.330323815E0
4.159109375E0,3.302561939E-1,9.647809982E0,1.347073555E0
4.164071875E0,4.546876252E-1,9.678915024E0,1.299218416E0
4.169035938E0,3.852941096E-1,9.643030167E0,1.325544953E0
4.173998438E0,2.728336453E-1,9.633453369E0,1.268112898E0
4.178962500E0,2.512954175E-1,9.745914459E0,1.170008063E0
4.183925000E0,2.297571748E-1,9.743529320E0,1.229824781E0
4.188889063E0,1.627578288E-1,9.779414177E0,1.198719382E0
4.193851563E0,1.412291676E-1,9.800951958E0,1.222651720E0
4.198814063E0,5.509537086E-2,9.875133514E0,1.193940520E0
4.203778125E0,6.227797270E-2,9.901451111E0,1.351862073E0
4.208740625E0,-3.104800731E-2,9.978017807E0,1.277689695E0
4.213704688E0,2.638410218E-2,9.930162430E0,1.222651720E0
4.218667188E0,-5.736507475E-2,9.963662148E0,1.237007499E0
4.223629688E0,-6.215347722E-2,9.903844833E0,1.215469122E0
4.228593750E0,-1.100087836E-1,1.001630592E1,1.260939837E0
4.233556250E0,-2.105077952E-1,9.951700211E0,1.237007499E0
4.238520313E0,-1.674408913E-1,9.963662148E0,1.256151438E0
4.243482813E0,-2.559688985E-1,1.001391125E1,1.368611932E0
4.248446875E0,-2.368248552E-1,1.004263210E1,1.313573956E0
4.253409375E0,-2.296518236E-1,1.004741096E1,1.337506413E0
4.258373438E0,-2.105077952E-1,1.005938148E1,1.332718015E0
4.263335938E0,-1.698351055E-1,1.003544903E1,1.375794411E0
4.268298438E0,-2.703245282E-1,9.989988327E0,1.438005328E0
4.273262500E0,-2.057193965E-1,9.942132950E0,1.533716083E0
4.278225000E0,-1.913637519E-1,9.961267471E0,1.586359739E0
4.283189063E0,-1.602582783E-1,9.961267471E0,1.694031715E0
4.288151563E0,-2.009405643E-1,9.987594604E0,1.749069691E0
4.293115625E0,-2.152961940E-1,9.970844269E0,1.753858089E0
4.298078125E0,-2.081135809E-1,9.944517136E0,1.662926316E0
4.303040625E0,-1.985463500E-1,9.908634186E0,1.567215681E0
4.308004688E0,-1.387200505E-1,9.841633797E0,1.428428531E0
4.312967188E0,-1.411142498E-1,9.839240074E0,1.332718015E0
4.317929688E0,-1.387200505E-1,9.757884979E0,1.280074358E0
4.322893750E0,-2.176903933E-1,9.688490868E0,1.143691063E0
4.327856250E0,-1.985463500E-1,9.755491257E0,1.031220913E0
4.332820313E0,-1.506910622E-1,9.705241203E0,9.259431362E-1
4.337782813E0,-1.052203774E-1,9.755491257E0,9.785868526E-1
4.342746875E0,-2.625960298E-2,9.693280220E0,9.450871348E-1
4.347709375E0,-2.386540174E-2,9.745914459E0,9.905482531E-1
4.352673438E0,-7.890331000E-2,9.688490868E0,9.953366518E-1
4.357635938E0,-1.190397050E-2,9.683703423E0,1.110191226E0
4.362598438E0,-1.190397050E-2,9.666953087E0,1.167613864E0
4.367562500E0,-1.908657700E-2,9.666953087E0,1.222651720E0
4.372525000E0,7.184520364E-2,9.671741486E0,1.160440803E0
4.377489063E0,1.077295020E-1,9.619097710E0,1.064720750E0
4.382451563E0,1.220851392E-1,9.635848045E0,1.079076290E0
4.387415625E0,1.388349682E-1,9.638241768E0,1.043192029E0
4.392378125E0,8.859504014E-2,9.666953087E0,1.052759290E0
4.397342188E0,9.576806426E-2,9.717203140E0,1.174796462E0
4.402304688E0,8.380663395E-2,9.805740356E0,1.241795778E0
4.407267188E0,3.834553435E-2,9.741134644E0,1.347073555E0
4.412231250E0,1.920149848E-2,9.791384697E0,1.471505165E0
4.417193750E0,1.441309415E-2,9.803345680E0,1.509793162E0
4.422157813E0,-3.344221041E-2,9.844018936E0,1.394928932E0
4.427120313E0,-2.386540174E-2,9.822490692E0,1.289651155E0
4.432084375E0,-5.258624628E-2,9.860768318E0,1.356650352E0
4.437046875E0,-1.052203774E-1,9.863162994E0,1.320756555E0
4.442009375E0,-8.129751682E-2,9.884700775E0,1.315968156E0
4.446973438E0,-1.506910622E-1,9.966055870E0,1.311189294E0
4.451935938E0,-2.368248552E-1,9.877518654E0,1.356650352E0
4.456900000E0,-2.775071263E-1,9.999555588E0,1.402111530E0
4.461862500E0,-2.942569554E-1,9.867951393E0,1.418861270E0
4.466825000E0,-1.913637519E-1,9.937344551E0,1.311189294E0
4.471789063E0,-2.009405643E-1,9.894268990E0,1.294439435E0
4.476751563E0,-1.913637519E-1,9.891883850E0,1.327939153E0
4.481715625E0,-1.435084492E-1,9.887095451E0,1.289651155E0
4.486678125E0,-1.100087836E-1,9.855990410E0,1.416467190E0
4.491640625E0,-1.147971824E-1,9.860768318E0,1.263324499E0
4.496604688E0,-5.258624628E-2,9.827268600E0,1.248968840E0
4.501567188E0,-9.565314651E-2,9.844018936E0,1.323150754E0
4.506531250E0,-3.583640978E-2,9.827268600E0,1.308795214E0
4.511493750E0,-9.509769268E-3,9.851201057E0,1.265718579E0
4.516457813E0,7.240065839E-3,9.774634361E0,1.325544953E0
4.521420313E0,-4.300943762E-2,9.808135033E0,1.330323815E0
4.526382813E0,2.451662440E-3,9.815307617E0,1.354256272E0
4.531346875E0,9.634267539E-3,9.848807335E0,1.323150754E0
4.536309375E0,-7.411490381E-2,9.884700775E0,1.342294812E0
4.541273438E0,-1.698351055E-1,9.884700775E0,1.406899929E0
4.546235938E0,-2.368248552E-1,9.937344551E0,1.404505730E0
4.551200000E0,-3.780061305E-1,9.858384132E0,1.304006696E0
4.556162500E0,-4.689379334E-1,9.970844269E0,1.213074923E0
4.561125000E0,-5.455045104E-1,9.939739227E0,1.136508465E0
4.566089063E0,-5.167931914E-1,9.911018372E0,1.110191226E0
4.571051563E0,-4.928607643E-1,9.942132950E0,9.977213144E-1
4.576015625E0,-5.096106529E-1,9.925383568E0,8.924434781E-1
4.580978125E0,-4.521880746E-1,9.968450546E0,9.187605381E-1
4.585940625E0,-4.497938752E-1,9.855990410E0,9.474717975E-1
4.590904688E0,-3.804003298E-1,9.858384132E0,9.379045963E-1
4.595867188E0,-4.139000177E-1,9.860768318E0,9.259431362E-1
4.600831250E0,-3.421122730E-1,9.772240639E0,9.259431362E-1
4.605793750E0,-7.650911063E-2,9.705241203E0,1.050364971E0
4.610756250E0,2.451662440E-3,9.669347763E0,1.050364971E0
4.615720313E0,1.244793311E-1,9.676529884E0,1.270507097E0
4.620684375E0,2.512954175E-1,9.633453369E0,1.399717450E0
4.625646875E0,3.206889629E-1,9.669347763E0,1.567215681E0
4.630609375E0,3.924766779E-1,9.619097710E0,1.734714150E0
4.635573438E0,4.714374840E-1,9.611914635E0,1.844780326E0
4.640535938E0,5.025429130E-1,9.592781067E0,1.851962924E0
4.645500000E0,5.360426307E-1,9.590386391E0,1.753858089E0
4.650462500E0,5.384368300E-1,9.647809982E0,1.672503233E0
4.655426563E0,5.145043731E-1,9.561666489E0,1.552860141E0
4.660389063E0,4.307551980E-1,9.566453934E0,1.378179073E0
4.665351563E0,3.422271907E-1,9.573637009E0,1.318362474E0
4.670315625E0,3.326503932E-1,9.585598946E0,1.201113582E0
4.675278125E0,1.866902709E-1,9.604742050E0,1.246574640E0
4.680242188E0,1.053352952E-1,9.626279831E0,1.160440803E0
4.685204688E0,5.746084207E-5,9.695664406E0,1.215469122E0
4.690168750E0,-5.258624628E-2,9.772240639E0,1.186757922E0
4.695131250E0,-3.104800731E-2,9.796163559E0,1.205901980E0
4.700093750E0,-1.722197086E-1,9.786596298E0,1.184363604E0
4.705057813E0,-1.387200505E-1,9.820096016E0,1.150864005E0
4.710020313E0,-1.363354176E-1,9.829663277E0,1.155652523E0
4.714984375E0,-1.411142498E-1,9.846412659E0,1.141296744E0
4.719946875E0,-1.291528195E-1,9.836845398E0,1.162825465E0
4.724910938E0,-1.219702139E-1,9.820096016E0,1.208296180E0
4.729873438E0,-1.195855886E-1,9.911018372E0,1.201113582E0
4.734835938E0,-1.267586201E-1,9.949306488E0,1.325544953E0
4.739800000E0,-5.258624628E-2,9.877518654E0,1.399717450E0
4.744762500E0,-7.172070444E-2,9.973237991E0,1.363823533E0
4.749726563E0,-3.104800731E-2,9.934949875E0,1.416467190E0
4.754689063E0,-8.369170874E-2,9.915806770E0,1.471505165E0
4.759653125E0,-1.459026486E-1,9.908634186E0,1.473899245E0
4.764614063E0,-1.435084492E-1,9.956489563E0,1.457149386E0
4.769578125E0,-8.847054094E-2,9.920595169E0,1.493043303E0
4.774540625E0,-8.129751682E-2,9.946911812E0,1.488254905E0
4.779504688E0,-8.608591557E-2,9.946911812E0,1.476293445E0
4.784468750E0,-4.300943762E-2,9.872738838E0,1.538504362E0
4.789431250E0,-3.104800731E-2,9.966055870E0,1.646176457E0
4.794393750E0,-7.650911063E-2,9.913412094E0,1.689252973E0
4.799357813E0,-7.411490381E-2,9.934949875E0,1.672503233E0
4.804320313E0,-8.129751682E-2,9.949306488E0,1.593542337E0
4.809284375E0,-1.100087836E-1,9.939739227E0,1.485860705E0
4.814246875E0,-4.300943762E-2,9.925383568E0,1.466716647E0
4.819209375E0,-1.190397050E-2,9.879913330E0,1.349467874E0
4.824171875E0,-5.975927413E-2,9.973237991E0,1.373400211E0
4.829135938E0,-7.650911063E-2,9.987594604E0,1.438005328E0
4.834100000E0,-1.908657700E-2,9.978017807E0,1.447572589E0
4.839062500E0,-9.804734588E-2,9.901451111E0,1.421255589E0
4.844025000E0,-1.530852467E-1,9.822490692E0,1.421255589E0
4.848987500E0,-1.315470189E-1,9.887095451E0,1.330323815E0
4.853951563E0,-7.650911063E-2,9.846412659E0,1.282468557E0
4.858915625E0,-1.004415527E-1,9.793779373E0,1.215469122E0
4.863878125E0,-6.933607906E-2,9.817702293E0,1.193940520E0
4.868842188E0,-7.650911063E-2,9.736346245E0,1.012086511E0
4.873803125E0,-3.583640978E-2,9.765057564E0,1.047970772E0
4.878767188E0,2.398990095E-2,9.743529320E0,1.083864689E0
4.883731250E0,-3.104800731E-2,9.757884979E0,1.079076290E0
4.888693750E0,-7.650911063E-2,9.788990021E0,1.272901297E0
4.893657813E0,-1.147971824E-1,9.798557281E0,1.351862073E0
4.898620313E0,-1.578640938E-1,9.779414177E0,1.416467190E0
4.903582813E0,-2.511900663E-1,9.784202576E0,1.445178509E0
4.908546875E0,-2.392190546E-1,9.781807899E0,1.490649223E0
4.913509375E0,-2.631514966E-1,9.757884979E0,1.461928368E0
4.918471875E0,-2.942569554E-1,9.798557281E0,1.421255589E0
4.923435938E0,-2.751129270E-1,9.829663277E0,1.361438870E0
4.928398438E0,-1.937579513E-1,9.808135033E0,1.311189294E0
4.933362500E0,-1.626524776E-1,9.786596298E0,1.332718015E0
4.938326563E0,-1.746139228E-1,9.726778984E0,1.253757238E0
4.943289063E0,-8.129751682E-2,9.690885544E0,1.306401014E0
4.948251563E0,-1.124029830E-1,9.731558800E0,1.294439435E0
4.953214063E0,-2.147120051E-2,9.721991539E0,1.306401014E0
4.958178125E0,3.355713189E-2,9.712413788E0,1.268112898E0
4.963140625E0,3.595133126E-2,9.657385826E0,1.337506413E0
4.968104688E0,2.398990095E-2,9.669347763E0,1.327939153E0
4.973067188E0,2.159569971E-2,9.650202751E0,1.260939837E0
4.978029688E0,7.902780920E-2,9.695664406E0,1.162825465E0
4.982993750E0,-1.429817267E-2,9.710029602E0,1.095826149E0
4.987956250E0,4.791276529E-2,9.700452805E0,1.028836250E0
4.992920313E0,6.466259807E-2,9.767452240E0,1.079076290E0
4.997882813E0,5.748957023E-2,9.738740921E0,1.103008628E0
5.002846875E0,2.159569971E-2,9.760279655E0,1.141296744E0
5.007809375E0,4.313393682E-2,9.808135033E0,1.258545637E0
5.012771875E0,-2.147120051E-2,9.777029037E0,1.260939837E0
5.017735938E0,-6.694187969E-2,9.839240074E0,1.323150754E0
5.022698438E0,-4.779784381E-2,9.877518654E0,1.397323132E0
5.027662500E0,-6.454767287E-2,9.879913330E0,1.430822849E0
5.032625000E0,-7.115567569E-3,9.865556717E0,1.473899245E0
5.037589063E0,-8.129751682E-2,9.834450722E0,1.495427966E0
5.042551563E0,-1.004415527E-1,9.822490692E0,1.572004199E0
5.047514063E0,-1.052203774E-1,9.774634361E0,1.569609880E0
5.052478125E0,-8.847054094E-2,9.779414177E0,1.588753939E0
5.057442188E0,-1.124029830E-1,9.748308182E0,1.674897313E0
5.062404688E0,-1.363354176E-1,9.774634361E0,1.610292196E0
5.067367188E0,-1.363354176E-1,9.786596298E0,1.662926316E0
5.072329688E0,-1.100087836E-1,9.731558800E0,1.631820798E0
5.077293750E0,-1.052203774E-1,9.719596863E0,1.557648420E0
5.082256250E0,-1.124029830E-1,9.717203140E0,1.457149386E0
5.087220313E0,-1.363354176E-1,9.688490868E0,1.397323132E0
5.092182813E0,-1.698351055E-1,9.714808464E0,1.315968156E0
5.097146875E0,-1.937579513E-1,9.726778984E0,1.277689695E0
5.102109375E0,-1.961521655E-1,9.683703423E0,1.217863441E0
5.107073438E0,-1.961521655E-1,9.729164124E0,1.143691063E0
5.112035938E0,-2.248634249E-1,9.724386215E0,1.110191226E0
5.116998438E0,-2.440074682E-1,9.712413788E0,1.193940520E0
5.121962500E0,-2.559688985E-1,9.736346245E0,1.136508465E0
5.126925000E0,-1.363354176E-1,9.786596298E0,1.126941204E0
5.131889063E0,-7.411490381E-2,9.788990021E0,1.095826149E0
5.136851563E0,-6.454767287E-2,9.772240639E0,1.036009431E0
5.141814063E0,6.705679744E-2,9.700452805E0,1.067114830E0
5.146778125E0,8.380663395E-2,9.681308746E0,1.057547569E0
5.151740625E0,1.268735379E-1,9.736346245E0,1.153258204E0
5.156704688E0,1.890844703E-1,9.707635880E0,1.205901980E0
5.161667188E0,1.699404269E-1,9.666953087E0,1.268112898E0
5.166629688E0,1.484021842E-1,9.777029037E0,1.366217613E0
5.171593750E0,1.172967330E-1,9.777029037E0,1.354256272E0
5.176557813E0,8.620083332E-2,9.805740356E0,1.411678791E0
5.181520313E0,1.125083268E-1,9.781807899E0,1.438005328E0
5.186482813E0,1.579789966E-1,9.731558800E0,1.449966788E0
5.191446875E0,1.627578288E-1,9.753096581E0,1.382967472E0
5.196409375E0,8.380663395E-2,9.767452240E0,1.399717450E0
5.201373438E0,1.484021842E-1,9.743529320E0,1.361438870E0
5.206335938E0,4.552813992E-2,9.772240639E0,1.349467874E0
5.211298438E0,5.748957023E-2,9.817702293E0,1.473899245E0
5.216262500E0,1.101237014E-1,9.812912941E0,1.435611248E0
5.221225000E0,2.451662440E-3,9.803345680E0,1.536110282E0
5.226189063E0,-2.625960298E-2,9.832057953E0,1.521754622E0
5.231151563E0,-7.890331000E-2,9.860768318E0,1.524148822E0
5.236114063E0,-3.104800731E-2,9.891883850E0,1.581571341E0
5.241078125E0,-1.908657700E-2,9.911018372E0,1.574398279E0
5.246040625E0,-2.625960298E-2,9.875133514E0,1.672503233E0
5.251004688E0,-8.369170874E-2,9.824884415E0,1.543292880E0
5.255967188E0,-6.454767287E-2,9.827268600E0,1.519360304E0
5.260931250E0,-6.694187969E-2,9.848807335E0,1.540898681E0
5.265893750E0,-1.908657700E-2,9.805740356E0,1.457149386E0
5.270857813E0,-8.608591557E-2,9.867951393E0,1.493043303E0
5.275820313E0,-7.650911063E-2,9.889489174E0,1.454755306E0
5.280782813E0,-1.291528195E-1,9.867951393E0,1.481072307E0
5.285746875E0,-1.865849346E-1,9.887095451E0,1.490649223E0
5.290709375E0,-2.990453839E-1,9.913412094E0,1.488254905E0
5.295673438E0,-2.679399252E-1,9.899056435E0,1.507398963E0
5.300635938E0,-3.038241863E-1,9.954094887E0,1.516966224E0
5.305598438E0,-2.535746992E-1,9.908634186E0,1.505004764E0
5.310562500E0,-2.152961940E-1,9.860768318E0,1.390150189E0
5.315525000E0,-1.650466919E-1,9.858384132E0,1.335112214E0
5.320489063E0,-2.033347636E-1,9.867951393E0,1.311189294E0
5.325451563E0,-1.770081222E-1,9.899056435E0,1.344689012E0
5.330415625E0,-1.482968628E-1,9.896661758E0,1.445178509E0
5.335378125E0,-1.602582783E-1,9.908634186E0,1.435611248E0
5.340342188E0,-1.794023216E-1,9.911018372E0,1.428428531E0
5.345304688E0,-1.554698795E-1,9.872738838E0,1.528927565E0
5.350267188E0,-1.841907203E-1,9.848807335E0,1.536110282E0
5.355231250E0,-2.033347636E-1,9.855990410E0,1.521754622E0
5.360193750E0,-1.794023216E-1,9.879913330E0,1.478678107E0
5.365157813E0,-1.459026486E-1,9.844018936E0,1.493043303E0
5.370120313E0,-1.530852467E-1,9.906239510E0,1.435611248E0
5.375084375E0,-8.369170874E-2,9.891883850E0,1.495427966E0
5.380046875E0,-3.822103515E-2,9.817702293E0,1.488254905E0
5.385009375E0,-3.104800731E-2,9.834450722E0,1.430822849E0
5.389973438E0,6.466259807E-2,9.815307617E0,1.428428531E0
5.394935938E0,1.172967330E-1,9.788990021E0,1.342294812E0
5.399900000E0,1.579789966E-1,9.767452240E0,1.404505730E0
5.404862500E0,1.149025261E-1,9.772240639E0,1.521754622E0
5.409825000E0,1.244793311E-1,9.779414177E0,1.588753939E0
5.414789063E0,8.859504014E-2,9.743529320E0,1.641397715E0
5.419751563E0,1.125083268E-1,9.767452240E0,1.686858773E0
5.424715625E0,1.125083268E-1,9.779414177E0,1.715570092E0
5.429678125E0,1.220851392E-1,9.733952522E0,1.689252973E0
5.434642188E0,1.244793311E-1,9.693280220E0,1.555254221E0
5.439604688E0,1.771230400E-1,9.671741486E0,1.588753939E0
5.444567188E0,1.771230400E-1,9.693280220E0,1.603109598E0
5.449531250E0,1.771230400E-1,9.731558800E0,1.617465258E0
5.454493750E0,1.842960715E-1,9.700452805E0,1.576792479E0
5.459457813E0,8.859504014E-2,9.762663841E0,1.610292196E0
5.464420313E0,3.116292879E-2,9.726778984E0,1.471505165E0
5.469384375E0,-4.721365869E-3,9.800951958E0,1.414072990E0
5.474346875E0,-3.344221041E-2,9.791384697E0,1.234613180E0
5.479309375E0,-1.435084492E-1,9.784202576E0,1.114970207E0
5.484273438E0,-1.387200505E-1,9.760279655E0,1.026442170E0
5.489235938E0,-2.200750262E-1,9.745914459E0,1.071903229E0
5.494200000E0,-2.105077952E-1,9.743529320E0,1.098220348E0
5.499162500E0,-2.200750262E-1,9.791384697E0,1.103008628E0
5.504125000E0,-2.272576243E-1,9.805740356E0,1.272901297E0
5.509089063E0,-3.229682446E-1,9.853595734E0,1.315968156E0
5.514051563E0,-2.846897244E-1,9.887095451E0,1.332718015E0
5.519015625E0,-3.971501887E-1,9.841633797E0,1.476293445E0
5.523978125E0,-4.450055063E-1,9.872738838E0,1.423649788E0
5.528942188E0,-4.234672487E-1,9.800951958E0,1.469110847E0
5.533904688E0,-3.756119311E-1,9.913412094E0,1.476293445E0
5.538867188E0,-3.804003298E-1,9.901451111E0,1.435611248E0
5.543831250E0,-2.511900663E-1,9.891883850E0,1.375794411E0
5.548795313E0,-2.200750262E-1,9.875133514E0,1.347073555E0
5.553757813E0,-1.435084492E-1,9.858384132E0,1.445178509E0
5.558720313E0,-1.100087836E-1,9.860768318E0,1.449966788E0
5.563684375E0,-1.669237576E-2,9.827268600E0,1.560042739E0
5.568646875E0,6.227797270E-2,9.788990021E0,1.586359739E0
5.573609375E0,7.423940301E-2,9.772240639E0,1.514572024E0
5.578573438E0,9.576806426E-2,9.731558800E0,1.428428531E0
5.583535938E0,2.877830528E-2,9.700452805E0,1.426043987E0
5.588498438E0,7.240065839E-3,9.743529320E0,1.447572589E0
5.593462500E0,9.634267539E-3,9.736346245E0,1.435611248E0
5.598426563E0,-4.721365869E-3,9.731558800E0,1.538504362E0
5.603389063E0,-5.975927413E-2,9.779414177E0,1.449966788E0
5.608351563E0,-1.482968628E-1,9.808135033E0,1.416467190E0
5.613315625E0,-1.171913818E-1,9.832057953E0,1.445178509E0
5.618278125E0,-1.435084492E-1,9.846412659E0,1.385361671E0
5.623242188E0,-1.841907203E-1,9.901451111E0,1.335112214E0
5.628204688E0,-1.889695525E-1,9.867951393E0,1.375794411E0
5.633168750E0,-1.530852467E-1,9.817702293E0,1.399717450E0
5.638131250E0,-2.464016527E-1,9.784202576E0,1.330323815E0
5.643093750E0,-3.038241863E-1,9.753096581E0,1.378179073E0
5.648056250E0,-3.134010136E-1,9.724386215E0,1.335112214E0
5.653020313E0,-2.751129270E-1,9.726778984E0,1.272901297E0
5.657984375E0,-1.698351055E-1,9.774634361E0,1.241795778E0
5.662946875E0,-1.195855886E-1,9.741134644E0,1.256151438E0
5.667909375E0,-9.325893968E-2,9.738740921E0,1.263324499E0
5.672871875E0,-9.509769268E-3,9.688490868E0,1.284862638E0
5.677835938E0,5.988377333E-2,9.736346245E0,1.347073555E0
5.682798438E0,7.902780920E-2,9.698058128E0,1.361438870E0
5.687762500E0,1.316523552E-1,9.702846527E0,1.497822165E0
5.692726563E0,1.268735379E-1,9.669347763E0,1.591148138E0
5.697689063E0,7.902780920E-2,9.729164124E0,1.600715280E0
5.702651563E0,2.058342993E-1,9.633453369E0,1.567215681E0
5.707615625E0,1.651520431E-1,9.695664406E0,1.509793162E0
5.712578125E0,1.723346412E-1,9.621492386E0,1.519360304E0
5.717542188E0,2.321513742E-1,9.602347374E0,1.576792479E0
5.722504688E0,1.938728839E-1,9.628664970E0,1.660541654E0
5.727468750E0,1.914786696E-1,9.628664970E0,1.720358372E0
5.732431250E0,1.172967330E-1,9.698058128E0,1.694031715E0
5.737395313E0,1.202846877E-2,9.750701904E0,1.749069691E0
5.742357813E0,1.920149848E-2,9.762663841E0,1.679676175E0
5.747320313E0,-7.115567569E-3,9.834450722E0,1.679676175E0
5.752284375E0,-5.019204319E-2,9.808135033E0,1.689252973E0
5.757246875E0,-7.172070444E-2,9.714808464E0,1.526543021E0
5.762209375E0,-8.847054094E-2,9.817702293E0,1.536110282E0
5.767173438E0,-1.722197086E-1,9.793779373E0,1.452361107E0
5.772135938E0,-1.722197086E-1,9.834450722E0,1.464322567E0
5.777098438E0,-2.799013257E-1,9.824884415E0,1.299218416E0
5.782062500E0,-3.014395833E-1,9.784202576E0,1.193940520E0
5.787025000E0,-3.684388995E-1,9.733952522E0,1.160440803E0
5.791989063E0,-3.062183857E-1,9.812912941E0,1.131719947E0
5.796951563E0,-3.134010136E-1,9.860768318E0,1.222651720E0
5.801914063E0,-3.038241863E-1,9.870346069E0,1.208296180E0
5.806878125E0,-3.157951832E-1,9.901451111E0,1.162825465E0
5.811840625E0,-2.775071263E-1,9.836845398E0,1.203507662E0
5.816804688E0,-2.655456960E-1,9.848807335E0,1.349467874E0
5.821767188E0,-1.674408913E-1,9.848807335E0,1.368611932E0
5.826731250E0,-1.722197086E-1,9.822490692E0,1.435611248E0
5.831695313E0,-1.794023216E-1,9.719596863E0,1.459543705E0
5.836657813E0,-1.028357521E-1,9.769846916E0,1.550465822E0
5.841620313E0,-2.386540174E-2,9.791384697E0,1.560042739E0
5.846584375E0,1.920149848E-2,9.757884979E0,1.660541654E0
5.851546875E0,8.141243458E-2,9.796163559E0,1.756252289E0
5.856509375E0,1.819018722E-1,9.705241203E0,1.830424666E0
5.861473438E0,2.441223711E-1,9.674136162E0,1.770607948E0
5.866437500E0,2.441223711E-1,9.690885544E0,1.847174406E0
5.871398438E0,3.063333035E-1,9.698058128E0,1.871106982E0
5.876362500E0,2.632568479E-1,9.702846527E0,1.773002028E0
5.881326563E0,2.776220441E-1,9.645415306E0,1.746675491E0
5.886289063E0,2.154015303E-1,9.652597427E0,1.701214314E0
5.891251563E0,1.555848122E-1,9.683703423E0,1.677281976E0
5.896215625E0,5.030696467E-2,9.741134644E0,1.648570657E0
5.901178125E0,-4.540364072E-2,9.738740921E0,1.557648420E0
5.906140625E0,5.746084207E-5,9.755491257E0,1.411678791E0
5.911104688E0,-9.086474776E-2,9.803345680E0,1.356650352E0
5.916067188E0,-1.267586201E-1,9.772240639E0,1.399717450E0
5.921031250E0,-1.004415527E-1,9.755491257E0,1.287256956E0
5.925993750E0,-4.300943762E-2,9.712413788E0,1.265718579E0
5.930957813E0,4.073973373E-2,9.733952522E0,1.380573392E0
5.935921875E0,7.663360238E-2,9.676529884E0,1.457149386E0
5.940884375E0,6.705679744E-2,9.721991539E0,1.543292880E0
5.945846875E0,4.791276529E-2,9.688490868E0,1.677281976E0
5.950809375E0,6.945100427E-2,9.796163559E0,1.720358372E0
5.955773438E0,9.098923951E-2,9.765057564E0,1.799319267E0
5.960737500E0,-3.583640978E-2,9.738740921E0,1.746675491E0
5.965698438E0,-6.694187969E-2,9.779414177E0,1.732319832E0
5.970662500E0,-1.267586201E-1,9.839240074E0,1.799319267E0
5.975625000E0,-1.195855886E-1,9.879913330E0,1.804107547E0
5.980589063E0,-1.674408913E-1,9.879913330E0,1.715570092E0
5.985553125E0,-2.057193965E-1,9.903844833E0,1.691647053E0
5.990515625E0,-2.105077952E-1,9.884700775E0,1.662926316E0
5.995479688E0,-3.277566135E-1,9.875133514E0,1.555254221E0
6.000442188E0,-2.487958670E-1,9.863162994E0,1.514572024E0
6.005406250E0,-2.416132689E-1,9.879913330E0,1.339900613E0
6.010368750E0,-2.368248552E-1,9.853595734E0,1.268112898E0
6.015331250E0,-2.703245282E-1,9.774634361E0,1.241795778E0
6.020295313E0,-2.535746992E-1,9.815307617E0,1.272901297E0
6.025257813E0,-2.440074682E-1,9.796163559E0,1.282468557E0
6.030221875E0,-2.583630979E-1,9.798557281E0,1.325544953E0
6.035182813E0,-2.464016527E-1,9.800951958E0,1.313573956E0
6.040146875E0,-2.200750262E-1,9.805740356E0,1.320756555E0
6.045109375E0,-2.655456960E-1,9.798557281E0,1.239401579E0
6.050073438E0,-2.464016527E-1,9.772240639E0,1.186757922E0
6.055035938E0,-1.435084492E-1,9.815307617E0,1.177190661E0
6.060000000E0,-1.171913818E-1,9.834450722E0,1.304006696E0
6.064962500E0,-6.933607906E-2,9.836845398E0,1.356650352E0
6.069925000E0,-6.694187969E-2,9.834450722E0,1.373400211E0
6.074890625E0,-8.608591557E-2,9.889489174E0,1.483466506E0
6.079851563E0,-1.435084492E-1,9.870346069E0,1.464322567E0
6.084815625E0,-1.506910622E-1,9.860768318E0,1.552860141E0
6.089778125E0,-1.124029830E-1,9.913412094E0,1.607897997E0
6.094740625E0,-1.985463500E-1,9.911018372E0,1.627041936E0
6.099706250E0,-2.344402373E-1,9.913412094E0,1.634215117E0
6.104667188E0,-2.942569554E-1,9.942132950E0,1.610292196E0
6.109631250E0,-3.732177317E-1,9.975632668E0,1.615071058E0
6.114595313E0,-3.875733614E-1,9.949306488E0,1.689252973E0
6.119557813E0,-3.277566135E-1,1.001630592E1,1.672503233E0
6.124521875E0,-3.038241863E-1,9.934949875E0,1.682070255E0
6.129482813E0,-4.282556474E-1,9.930162430E0,1.526543021E0
6.134446875E0,-2.631514966E-1,9.942132950E0,1.490649223E0
6.139409375E0,-1.985463500E-1,9.927767754E0,1.591148138E0
6.144373438E0,-2.033347636E-1,9.901451111E0,1.452361107E0
6.149335938E0,-1.794023216E-1,9.822490692E0,1.600715280E0
6.154300000E0,-1.530852467E-1,9.834450722E0,1.636609197E0
6.159264063E0,-1.291528195E-1,9.755491257E0,1.617465258E0
6.164225000E0,-7.411490381E-2,9.841633797E0,1.617465258E0
6.169190625E0,-1.315470189E-1,9.755491257E0,1.682070255E0
6.174153125E0,-5.019204319E-2,9.805740356E0,1.686858773E0
6.179115625E0,-4.721365869E-3,9.851201057E0,1.739502430E0
6.184078125E0,-2.147120051E-2,9.800951958E0,1.727531552E0
6.189042188E0,-5.975927413E-2,9.815307617E0,1.703608632E0
6.194004688E0,-6.694187969E-2,9.769846916E0,1.694031715E0
6.198967188E0,-5.736507475E-2,9.829663277E0,1.694031715E0
6.203932813E0,-1.411142498E-1,9.879913330E0,1.732319832E0
6.208893750E0,-1.195855886E-1,9.808135033E0,1.761031151E0
6.213857813E0,-1.291528195E-1,9.793779373E0,1.722752571E0
6.218821875E0,-1.985463500E-1,9.808135033E0,1.758646488E0
6.223784375E0,-1.387200505E-1,9.803345680E0,1.717964292E0
6.228746875E0,-1.937579513E-1,9.743529320E0,1.641397715E0
6.233710938E0,-1.339412183E-1,9.788990021E0,1.567215681E0
6.238673438E0,-1.076145768E-1,9.741134644E0,1.435611248E0
6.243635938E0,-8.129751682E-2,9.760279655E0,1.476293445E0
6.248600000E0,-1.315470189E-1,9.733952522E0,1.423649788E0
6.253564063E0,-6.454767287E-2,9.750701904E0,1.433217049E0
6.258526563E0,-2.625960298E-2,9.736346245E0,1.430822849E0
6.263489063E0,-9.086474776E-2,9.731558800E0,1.418861270E0
6.268451563E0,-2.625960298E-2,9.657385826E0,1.452361107E0
6.273415625E0,-7.115567569E-3,9.676529884E0,1.394928932E0
6.278378125E0,-1.004415527E-1,9.698058128E0,1.438005328E0
6.283342188E0,-6.215347722E-2,9.707635880E0,1.433217049E0
6.288304688E0,-1.363354176E-1,9.745914459E0,1.284862638E0
6.293268750E0,-8.608591557E-2,9.721991539E0,1.371006131E0
6.298231250E0,-1.028357521E-1,9.719596863E0,1.277689695E0
6.303193750E0,-8.369170874E-2,9.743529320E0,1.217863441E0
6.308157813E0,-4.061523825E-2,9.719596863E0,1.160440803E0
6.313121875E0,-2.147120051E-2,9.733952522E0,1.198719382E0
6.318084375E0,-1.028357521E-1,9.743529320E0,1.241795778E0
6.323046875E0,-1.195855886E-1,9.738740921E0,1.253757238E0
6.328009375E0,-1.195855886E-1,9.738740921E0,1.222651720E0
6.332973438E0,-2.081135809E-1,9.748308182E0,1.260939837E0
6.337937500E0,-2.009405643E-1,9.784202576E0,1.275295496E0
6.342901563E0,-1.291528195E-1,9.805740356E0,1.349467874E0
6.347862500E0,-1.171913818E-1,9.769846916E0,1.299218416E0
6.352826563E0,-1.817965209E-1,9.793779373E0,1.447572589E0
6.357789063E0,-1.554698795E-1,9.772240639E0,1.430822849E0
6.362751563E0,-1.698351055E-1,9.796163559E0,1.509793162E0
6.367715625E0,-7.890331000E-2,9.827268600E0,1.536110282E0
6.372679688E0,-1.530852467E-1,9.834450722E0,1.543292880E0
6.377642188E0,-1.052203774E-1,9.839240074E0,1.536110282E0
6.382604688E0,-1.363354176E-1,9.848807335E0,1.476293445E0
6.387567188E0,-1.052203774E-1,9.844018936E0,1.521754622E0
6.392531250E0,-1.554698795E-1,9.846412659E0,1.545677543E0
6.397493750E0,-2.200750262E-1,9.832057953E0,1.619859338E0
6.402457813E0,-1.985463500E-1,9.872738838E0,1.641397715E0
6.407420313E0,-2.105077952E-1,9.872738838E0,1.660541654E0
6.412384375E0,-2.081135809E-1,9.791384697E0,1.617465258E0
6.417346875E0,-1.530852467E-1,9.791384697E0,1.574398279E0
6.422310938E0,-7.172070444E-2,9.800951958E0,1.639003396E0
6.427273438E0,-7.890331000E-2,9.822490692E0,1.516966224E0
6.432235938E0,-4.061523825E-2,9.736346245E0,1.409294248E0
6.437200000E0,-3.344221041E-2,9.729164124E0,1.449966788E0
6.442162500E0,-7.650911063E-2,9.748308182E0,1.344689012E0
6.447126563E0,-1.004415527E-1,9.750701904E0,1.306401014E0
6.452089063E0,-1.195855886E-1,9.760279655E0,1.189152122E0
6.457051563E0,-8.608591557E-2,9.822490692E0,1.201113582E0
6.462015625E0,-8.608591557E-2,9.803345680E0,1.196325064E0
6.466978125E0,-1.506910622E-1,9.769846916E0,1.213074923E0
6.471942188E0,-1.865849346E-1,9.829663277E0,1.292045236E0
6.476904688E0,-2.248634249E-1,9.822490692E0,1.325544953E0
6.481868750E0,-2.105077952E-1,9.772240639E0,1.397323132E0
6.486831250E0,-1.841907203E-1,9.855990410E0,1.447572589E0
6.491795313E0,-1.913637519E-1,9.810519218E0,1.442793846E0
6.496757813E0,-1.028357521E-1,9.726778984E0,1.423649788E0
6.501720313E0,-1.052203774E-1,9.788990021E0,1.516966224E0
6.506684375E0,-1.626524776E-1,9.714808464E0,1.461928368E0
6.511646875E0,-1.147971824E-1,9.755491257E0,1.502610564E0
6.516610938E0,-9.086474776E-2,9.707635880E0,1.509793162E0
6.521573438E0,-1.339412183E-1,9.733952522E0,1.464322567E0
6.526537500E0,-7.411490381E-2,9.733952522E0,1.454755306E0
6.531500000E0,-4.300943762E-2,9.743529320E0,1.426043987E0
6.536462500E0,5.030696467E-2,9.724386215E0,1.406899929E0
6.541426563E0,2.877830528E-2,9.700452805E0,1.390150189E0
6.546389063E0,3.116292879E-2,9.717203140E0,1.493043303E0
6.551353125E0,7.902780920E-2,9.796163559E0,1.536110282E0
6.556315625E0,2.638410218E-2,9.762663841E0,1.564821482E0
6.561278125E0,4.845864139E-3,9.798557281E0,1.586359739E0
6.566242188E0,-2.865380608E-2,9.755491257E0,1.493043303E0
6.571204688E0,7.240065839E-3,9.810519218E0,1.519360304E0
6.576168750E0,-8.129751682E-2,9.769846916E0,1.493043303E0
6.581131250E0,-1.219702139E-1,9.803345680E0,1.433217049E0
6.586095313E0,-1.554698795E-1,9.784202576E0,1.526543021E0
6.591057813E0,-1.794023216E-1,9.851201057E0,1.473899245E0
6.596021875E0,-1.411142498E-1,9.812912941E0,1.485860705E0
6.600984375E0,-1.482968628E-1,9.798557281E0,1.380573392E0
6.605946875E0,-1.387200505E-1,9.829663277E0,1.327939153E0
6.610910938E0,-1.171913818E-1,9.765057564E0,1.323150754E0
6.615873438E0,-1.243644133E-1,9.779414177E0,1.296824098E0
6.620837500E0,-3.822103515E-2,9.808135033E0,1.361438870E0
6.625800000E0,-2.865380608E-2,9.798557281E0,1.423649788E0
6.630762500E0,4.313393682E-2,9.765057564E0,1.454755306E0
6.635726563E0,2.877830528E-2,9.834450722E0,1.543292880E0
6.640689063E0,5.030696467E-2,9.779414177E0,1.615071058E0
6.645653125E0,2.398990095E-2,9.674136162E0,1.706002831E0
6.650615625E0,6.227797270E-2,9.772240639E0,1.751463890E0
6.655578125E0,5.509537086E-2,9.786596298E0,1.816069007E0
6.660542188E0,7.663360238E-2,9.784202576E0,1.796925068E0
6.665504688E0,7.423940301E-2,9.820096016E0,1.878279924E0
6.670468750E0,5.270116776E-2,9.757884979E0,1.842395663E0
6.675431250E0,-7.115567569E-3,9.791384697E0,1.813674808E0
6.680395313E0,-7.890331000E-2,9.791384697E0,1.686858773E0
6.685357813E0,-6.454767287E-2,9.798557281E0,1.650964856E0
6.690320313E0,-1.459026486E-1,9.798557281E0,1.617465258E0
6.695284375E0,-1.530852467E-1,9.829663277E0,1.495427966E0
6.700246875E0,-1.794023216E-1,9.774634361E0,1.476293445E0
6.705210938E0,-2.344402373E-1,9.810519218E0,1.466716647E0
6.710173438E0,-2.535746992E-1,9.753096581E0,1.478678107E0
6.715137500E0,-2.272576243E-1,9.760279655E0,1.378179073E0
6.720100000E0,-3.086126149E-1,9.745914459E0,1.220257521E0
6.725062500E0,-2.535746992E-1,9.848807335E0,1.153258204E0
6.730026563E0,-2.511900663E-1,9.803345680E0,1.136508465E0
6.734989063E0,-2.368248552E-1,9.832057953E0,1.126941204E0
6.739953125E0,-3.492948711E-1,9.755491257E0,1.210690260E0
6.744915625E0,-3.851887584E-1,9.757884979E0,1.306401014E0
6.749879688E0,-4.258614480E-1,9.741134644E0,1.363823533E0
6.754842188E0,-3.971501887E-1,9.731558800E0,1.404505730E0
6.759804688E0,-4.234672487E-1,9.779414177E0,1.394928932E0
6.764768750E0,-3.947559893E-1,9.777029037E0,1.308795214E0
6.769731250E0,-3.469006717E-1,9.781807899E0,1.237007499E0
6.774695313E0,-3.492948711E-1,9.719596863E0,1.208296180E0
6.779657813E0,-3.134010136E-1,9.750701904E0,1.174796462E0
6.784621875E0,-3.014395833E-1,9.714808464E0,1.193940520E0
6.789584375E0,-1.889695525E-1,9.733952522E0,1.222651720E0
6.794546875E0,-1.770081222E-1,9.662164688E0,1.241795778E0
6.799510938E0,2.451662440E-3,9.678915024E0,1.292045236E0
6.804473438E0,-4.300943762E-2,9.676529884E0,1.337506413E0
6.809437500E0,7.663360238E-2,9.654992104E0,1.339900613E0
6.814400000E0,6.945100427E-2,9.681308746E0,1.490649223E0
6.819362500E0,2.638410218E-2,9.686098099E0,1.524148822E0
6.824326563E0,1.053352952E-1,9.657385826E0,1.622253656E0
6.829289063E0,1.172967330E-1,9.729164124E0,1.631820798E0
6.834253125E0,9.815269709E-2,9.686098099E0,1.646176457E0
6.839215625E0,1.268735379E-1,9.683703423E0,1.749069691E0
6.844179688E0,8.380663395E-2,9.686098099E0,1.749069691E0
6.849142188E0,7.184520364E-2,9.678915024E0,1.636609197E0
6.854106250E0,1.005468965E-1,9.762663841E0,1.655753255E0
6.859068750E0,2.398990095E-2,9.781807899E0,1.555254221E0
6.864031250E0,-9.509769268E-3,9.717203140E0,1.588753939E0
6.868995313E0,-1.052203774E-1,9.791384697E0,1.442793846E0
6.873957813E0,-1.315470189E-1,9.774634361E0,1.363823533E0
6.878920313E0,-2.129019946E-1,9.860768318E0,1.359044671E0
6.883884375E0,-3.110068142E-1,9.846412659E0,1.342294812E0
6.888846875E0,-3.301508427E-1,9.860768318E0,1.311189294E0
6.893810938E0,-3.349392414E-1,9.812912941E0,1.394928932E0
6.898773438E0,-3.134010136E-1,9.800951958E0,1.380573392E0
6.903737500E0,-2.440074682E-1,9.848807335E0,1.430822849E0
6.908700000E0,-1.985463500E-1,9.875133514E0,1.495427966E0
6.913662500E0,-1.865849346E-1,9.884700775E0,1.581571341E0
6.918626563E0,-2.464016527E-1,9.925383568E0,1.722752571E0
6.923590625E0,-2.248634249E-1,9.913412094E0,1.804107547E0
6.928553125E0,-2.559688985E-1,9.879913330E0,1.768213749E0
6.933515625E0,-3.253624141E-1,9.884700775E0,1.780175209E0
6.938479688E0,-3.229682446E-1,9.858384132E0,1.729925632E0
6.943442188E0,-3.947559893E-1,9.922988892E0,1.622253656E0
6.948406250E0,-3.612563312E-1,9.894268990E0,1.509793162E0
6.953368750E0,-3.540737033E-1,9.980412483E0,1.435611248E0
6.958331250E0,-3.445064723E-1,9.951700211E0,1.414072990E0
6.963295313E0,-3.086126149E-1,9.932557106E0,1.394928932E0
6.968257813E0,-3.062183857E-1,1.001870060E1,1.428428531E0
6.973220313E0,-2.966511548E-1,9.958883286E0,1.655753255E0
6.978184375E0,-3.229682446E-1,9.901451111E0,1.734714150E0
6.983146875E0,-2.344402373E-1,9.851201057E0,1.832818866E0
6.988110938E0,-1.626524776E-1,9.865556717E0,1.866318464E0
6.993073438E0,-1.100087836E-1,9.846412659E0,1.890250921E0
6.998037500E0,4.313393682E-2,9.815307617E0,1.794530749E0
7.003000000E0,6.705679744E-2,9.781807899E0,1.725146890E0
7.007962500E0,8.859504014E-2,9.772240639E0,1.684464574E0
7.012925000E0,1.460079998E-1,9.700452805E0,1.550465822E0
7.017889063E0,1.699404269E-1,9.650202751E0,1.545677543E0
7.022853125E0,2.201899439E-1,9.621492386E0,1.495427966E0
7.027815625E0,2.584780157E-1,9.609530449E0,1.454755306E0
7.032779688E0,2.656510174E-1,9.580809593E0,1.445178509E0
7.037742188E0,2.680452466E-1,9.643030167E0,1.339900613E0
7.042706250E0,2.489012182E-1,9.544916153E0,1.354256272E0
7.047668750E0,2.058342993E-1,9.578415871E0,1.335112214E0
7.052632813E0,2.345455736E-1,9.580809593E0,1.380573392E0
7.057593750E0,2.512954175E-1,9.561666489E0,1.399717450E0
7.062559375E0,2.345455736E-1,9.578415871E0,1.557648420E0
7.067521875E0,2.130073458E-1,9.602347374E0,1.583965540E0
7.072484375E0,1.795076579E-1,9.659780502E0,1.629426599E0
7.077446875E0,1.914786696E-1,9.607136726E0,1.605503798E0
7.082410938E0,1.795076579E-1,9.590386391E0,1.600715280E0
7.087373438E0,2.034401149E-1,9.614309311E0,1.593542337E0
7.092335938E0,1.340465695E-1,9.640635490E0,1.538504362E0
7.097300000E0,8.620083332E-2,9.602347374E0,1.512177706E0
7.102264063E0,8.859504014E-2,9.686098099E0,1.701214314E0
7.107225000E0,1.101237014E-1,9.607136726E0,1.784963489E0
7.112189063E0,4.791276529E-2,9.659780502E0,1.794530749E0
7.117151563E0,-5.497087166E-2,9.698058128E0,1.873501062E0
7.122115625E0,-8.369170874E-2,9.736346245E0,1.823251605E0
7.127078125E0,-1.626524776E-1,9.769846916E0,1.756252289E0
7.132042188E0,-1.770081222E-1,9.767452240E0,1.816069007E0
7.137004688E0,-2.320460379E-1,9.803345680E0,1.768213749E0
7.141968750E0,-2.942569554E-1,9.836845398E0,1.686858773E0
7.146931250E0,-3.277566135E-1,9.817702293E0,1.670108914E0
7.151895313E0,-3.397180736E-1,9.834450722E0,1.552860141E0
7.156857813E0,-3.373238444E-1,9.781807899E0,1.562427282E0
7.161820313E0,-3.899675608E-1,9.779414177E0,1.615071058E0
7.166784375E0,-3.564679027E-1,9.798557281E0,1.617465258E0
7.171748438E0,-3.708235621E-1,9.786596298E0,1.593542337E0
7.176710938E0,-3.851887584E-1,9.736346245E0,1.684464574E0
7.181673438E0,-3.851887584E-1,9.741134644E0,1.677281976E0
7.186637500E0,-3.229682446E-1,9.729164124E0,1.725146890E0
7.191600000E0,-2.966511548E-1,9.729164124E0,1.717964292E0
7.196562500E0,-3.086126149E-1,9.741134644E0,1.674897313E0
7.201526563E0,-2.655456960E-1,9.717203140E0,1.579177141E0
7.206490625E0,-2.918627560E-1,9.719596863E0,1.519360304E0
7.211451563E0,-2.655456960E-1,9.643030167E0,1.557648420E0
7.216415625E0,-3.349392414E-1,9.647809982E0,1.555254221E0
7.221379688E0,-3.588621020E-1,9.678915024E0,1.500216365E0
7.226342188E0,-4.354382753E-1,9.626279831E0,1.447572589E0
7.231304688E0,-4.641495049E-1,9.614309311E0,1.356650352E0
7.236268750E0,-4.832935631E-1,9.535348892E0,1.234613180E0
7.241231250E0,-4.258614480E-1,9.564060211E0,1.079076290E0
7.246193750E0,-3.732177317E-1,9.477926254E0,1.047970772E0
7.251157813E0,-3.708235621E-1,9.363062859E0,9.044048786E-1
7.256121875E0,-2.918627560E-1,9.293677330E0,8.326171637E-1
7.261085938E0,-2.655456960E-1,9.202746391E0,7.919444442E-1
7.266046875E0,-2.057193965E-1,9.174035072E0,7.656177878E-1
7.271010938E0,-4.300943762E-2,9.209928513E0,8.063001037E-1
7.275973438E0,-4.061523825E-2,9.164458275E0,8.541554213E-1
7.280935938E0,-6.215347722E-2,9.171640396E0,9.402987957E-1
7.285901563E0,1.920149848E-2,9.118996620E0,9.355103970E-1
7.290864063E0,4.313393682E-2,9.083103180E0,1.045586228E0
7.295826563E0,-2.386540174E-2,9.071141243E0,1.107797146E0
7.300789063E0,-5.975927413E-2,9.051998138E0,1.050364971E0
7.305753125E0,-3.822103515E-2,9.130958557E0,1.181969523E0
7.310715625E0,-1.171913818E-1,9.102247238E0,1.208296180E0
7.315678125E0,-8.608591557E-2,9.121391296E0,1.229824781E0
7.320642188E0,-1.267586201E-1,9.193179131E0,1.217863441E0
7.325604688E0,-1.339412183E-1,9.150102615E0,1.308795214E0
7.330568750E0,-6.215347722E-2,9.197957993E0,1.256151438E0
7.335531250E0,-1.076145768E-1,9.176429749E0,1.275295496E0
7.340495313E0,-8.369170874E-2,9.152497292E0,1.258545637E0
7.345457813E0,-7.411490381E-2,9.090286255E0,1.318362474E0
7.350421875E0,2.398990095E-2,9.188390732E0,1.394928932E0
7.355384375E0,2.877830528E-2,9.190785408E0,1.500216365E0
7.360346875E0,7.240065839E-3,9.200352669E0,1.442793846E0
7.365310938E0,3.834553435E-2,9.150102615E0,1.490649223E0
7.370273438E0,3.595133126E-2,9.169246674E0,1.457149386E0
7.375237500E0,5.030696467E-2,9.212313652E0,1.382967472E0
7.380201563E0,1.388349682E-1,9.176429749E0,1.241795778E0
7.385162500E0,5.988377333E-2,9.233851433E0,1.179575324E0
7.390126563E0,1.172967330E-1,9.238640785E0,1.229824781E0
7.395089063E0,1.388349682E-1,9.202746391E0,1.256151438E0
7.400053125E0,1.484021842E-1,9.257783890E0,1.469110847E0
7.405015625E0,1.077295020E-1,9.329562187E0,1.509793162E0
7.409979688E0,1.771230400E-1,9.310427666E0,1.674897313E0
7.414942188E0,1.460079998E-1,9.322389603E0,1.796925068E0
7.419904688E0,1.125083268E-1,9.353494644E0,1.722752571E0
7.424868750E0,1.292581707E-1,9.300851822E0,1.710781574E0
7.429831250E0,9.338344634E-2,9.382205963E0,1.684464574E0
7.434795313E0,8.380663395E-2,9.504242897E0,1.574398279E0
7.439759375E0,1.364407688E-1,9.434849739E0,1.493043303E0
7.444721875E0,2.159569971E-2,9.540136337E0,1.423649788E0
7.449685938E0,-2.336740959E-3,9.599953651E0,1.289651155E0
7.454648438E0,-5.736507475E-2,9.585598946E0,1.337506413E0
7.459612500E0,-1.076145768E-1,9.592781067E0,1.339900613E0
7.464573438E0,-2.081135809E-1,9.599953651E0,1.323150754E0
7.469537500E0,-2.368248552E-1,9.542531013E0,1.411678791E0
7.474500000E0,-2.535746992E-1,9.611914635E0,1.502610564E0
7.479462500E0,-2.344402373E-1,9.554492950E0,1.387755871E0
7.484426563E0,-2.081135809E-1,9.544916153E0,1.392544270E0
7.489390625E0,-1.841907203E-1,9.549704552E0,1.368611932E0
7.494353125E0,-1.291528195E-1,9.540136337E0,1.371006131E0
7.499315625E0,-9.565314651E-2,9.547310829E0,1.435611248E0
7.504279688E0,-3.822103515E-2,9.494675636E0,1.385361671E0
7.509242188E0,-1.669237576E-2,9.434849739E0,1.488254905E0
7.514204688E0,2.159569971E-2,9.418099403E0,1.449966788E0
7.519168750E0,7.423940301E-2,9.449205399E0,1.493043303E0
7.524131250E0,1.579789966E-1,9.384600639E0,1.404505730E0
7.529095313E0,9.338344634E-2,9.415705681E0,1.399717450E0
7.534059375E0,1.172967330E-1,9.310427666E0,1.438005328E0
7.539021875E0,1.172967330E-1,9.375033379E0,1.509793162E0
7.543984375E0,1.292581707E-1,9.391782761E0,1.459543705E0
7.548948438E0,1.077295020E-1,9.446811676E0,1.461928368E0
7.553912500E0,9.634267539E-3,9.451600075E0,1.476293445E0
7.558875000E0,-6.933607906E-2,9.501849174E0,1.488254905E0
7.563837500E0,-1.435084492E-1,9.482705116E0,1.449966788E0
7.568801563E0,-1.794023216E-1,9.537743568E0,1.342294812E0
7.573764063E0,-2.464016527E-1,9.415705681E0,1.435611248E0
7.578726563E0,-3.588621020E-1,9.470744133E0,1.251363039E0
7.583689063E0,-3.134010136E-1,9.473137856E0,1.248968840E0
7.588653125E0,-3.229682446E-1,9.516204834E0,1.246574640E0
7.593615625E0,-3.708235621E-1,9.509031296E0,1.146075726E0
7.598579688E0,-3.827945590E-1,9.528165817E0,1.234613180E0
7.603543750E0,-4.162942171E-1,9.456387520E0,1.248968840E0
7.608506250E0,-4.091115892E-1,9.449205399E0,1.260939837E0
7.613468750E0,-2.392190546E-1,9.367850304E0,1.253757238E0
7.618431250E0,-1.985463500E-1,9.322389603E0,1.239401579E0
7.623395313E0,-5.019204319E-2,9.391782761E0,1.248968840E0
7.628357813E0,-2.386540174E-2,9.351100922E0,1.201113582E0
7.633321875E0,1.340465695E-1,9.329562187E0,1.217863441E0
7.638285938E0,8.380663395E-2,9.312812805E0,1.315968156E0
7.643248438E0,1.005468965E-1,9.174035072E0,1.327939153E0
7.648210938E0,1.819018722E-1,9.195572853E0,1.394928932E0
7.653173438E0,2.393339872E-1,9.150102615E0,1.516966224E0
7.658137500E0,2.082285136E-1,9.207534790E0,1.509793162E0
7.663101563E0,2.130073458E-1,9.219495773E0,1.569609880E0
7.668064063E0,1.699404269E-1,9.241034508E0,1.545677543E0
7.673026563E0,5.030696467E-2,9.190785408E0,1.552860141E0
7.677990625E0,-4.300943762E-2,9.185996056E0,1.507398963E0
7.682953125E0,-1.076145768E-1,9.250601768E0,1.481072307E0
7.687915625E0,-1.124029830E-1,9.190785408E0,1.385361671E0
7.692879688E0,-1.889695525E-1,9.159679413E0,1.227440238E0
7.697843750E0,-2.368248552E-1,9.176429749E0,1.129325747E0
7.702806250E0,-2.392190546E-1,9.121391296E0,1.031220913E0
7.707770313E0,-1.985463500E-1,9.181207657E0,1.098220348E0
7.712732813E0,-1.794023216E-1,9.183602333E0,1.043192029E0
7.717695313E0,-2.176903933E-1,9.099853516E0,1.165219545E0
7.722657813E0,-2.200750262E-1,9.195572853E0,1.172402263E0
7.727621875E0,-2.009405643E-1,9.185996056E0,1.237007499E0
7.732584375E0,-1.602582783E-1,9.288889885E0,1.289651155E0
7.737548438E0,-1.339412183E-1,9.276928902E0,1.313573956E0
7.742510938E0,-7.890331000E-2,9.322389603E0,1.373400211E0
7.747473438E0,-5.258624628E-2,9.279312134E0,1.416467190E0
7.752437500E0,-4.300943762E-2,9.209928513E0,1.483466506E0
7.757400000E0,6.945100427E-2,9.279312134E0,1.414072990E0
7.762364063E0,8.859504014E-2,9.296062469E0,1.373400211E0
7.767326563E0,7.663360238E-2,9.219495773E0,1.399717450E0
7.772289063E0,7.663360238E-2,9.236246109E0,1.442793846E0
7.777253125E0,2.159569971E-2,9.236246109E0,1.430822849E0
7.782215625E0,-1.076145768E-1,9.308033943E0,1.397323132E0
7.787181250E0,-9.804734588E-2,9.329562187E0,1.438005328E0
7.792142188E0,-1.889695525E-1,9.351100922E0,1.356650352E0
7.797106250E0,-2.320460379E-1,9.410926819E0,1.325544953E0
7.802068750E0,-2.105077952E-1,9.398956299E0,1.394928932E0
7.807032813E0,-2.057193965E-1,9.434849739E0,1.265718579E0
7.811995313E0,-2.176903933E-1,9.465954781E0,1.248968840E0
7.816957813E0,-2.607572973E-1,9.437244415E0,1.256151438E0
7.821921875E0,-1.267586201E-1,9.453993797E0,1.232218981E0
7.826885938E0,-1.530852467E-1,9.408533096E0,1.148469806E0
7.831848438E0,-7.650911063E-2,9.525781631E0,1.191546321E0
7.836810938E0,-6.933607906E-2,9.453993797E0,1.220257521E0
7.841775000E0,-1.482968628E-1,9.489887238E0,1.225046039E0
7.846737500E0,-1.770081222E-1,9.463561058E0,1.332718015E0
7.851700000E0,-1.076145768E-1,9.444426537E0,1.438005328E0
7.856664063E0,-1.459026486E-1,9.482705116E0,1.464322567E0
7.861626563E0,-1.578640938E-1,9.513810158E0,1.607897997E0
7.866590625E0,-1.459026486E-1,9.544916153E0,1.555254221E0
7.871553125E0,-1.076145768E-1,9.506637573E0,1.572004199E0
7.876515625E0,-1.195855886E-1,9.456387520E0,1.531321764E0
7.881479688E0,-5.497087166E-2,9.489887238E0,1.375794411E0
7.886442188E0,-4.300943762E-2,9.463561058E0,1.349467874E0
7.891406250E0,-9.086474776E-2,9.468349457E0,1.351862073E0
7.896368750E0,7.240065839E-3,9.487493515E0,1.320756555E0
7.901332813E0,-5.497087166E-2,9.439639091E0,1.402111530E0
7.906295313E0,7.240065839E-3,9.509031296E0,1.359044671E0
7.911259375E0,-2.865380608E-2,9.439639091E0,1.466716647E0
7.916221875E0,-2.865380608E-2,9.422888756E0,1.414072990E0
7.921184375E0,-9.804734588E-2,9.410926819E0,1.428428531E0
7.926148438E0,-5.497087166E-2,9.358283043E0,1.263324499E0
7.931110938E0,-9.086474776E-2,9.391782761E0,1.170008063E0
7.936075000E0,-1.722197086E-1,9.391782761E0,1.143691063E0
7.941037500E0,-1.387200505E-1,9.499455452E0,1.114970207E0
7.946000000E0,-1.387200505E-1,9.432456017E0,1.124547005E0
7.950964063E0,-1.315470189E-1,9.446811676E0,1.100614548E0
7.955926563E0,-1.937579513E-1,9.482705116E0,1.117364407E0
7.960890625E0,-2.487958670E-1,9.439639091E0,1.112575889E0
7.965853125E0,-2.703245282E-1,9.351100922E0,1.172402263E0
7.970817188E0,-2.392190546E-1,9.327178001E0,1.138902545E0
7.975779688E0,-2.320460379E-1,9.382205963E0,1.201113582E0
7.980743750E0,-2.296518236E-1,9.386994362E0,1.170008063E0
7.985706250E0,-7.411490381E-2,9.456387520E0,1.289651155E0
7.990668750E0,-1.554698795E-1,9.406138420E0,1.347073555E0
7.995632813E0,-1.650466919E-1,9.360677719E0,1.497822165E0
8.000595313E0,-9.804734588E-2,9.336745262E0,1.526543021E0
8.005559375E0,-5.736507475E-2,9.391782761E0,1.514572024E0
8.010521875E0,-1.243644133E-1,9.372638702E0,1.500216365E0
8.015484375E0,-1.674408913E-1,9.293677330E0,1.531321764E0
8.020448438E0,-1.674408913E-1,9.312812805E0,1.457149386E0
8.025410938E0,-1.650466919E-1,9.327178001E0,1.428428531E0
8.030375000E0,-2.248634249E-1,9.288889885E0,1.332718015E0
8.035337500E0,-2.296518236E-1,9.298457146E0,1.301612496E0
8.040301563E0,-2.918627560E-1,9.322389603E0,1.263324499E0
8.045264063E0,-3.134010136E-1,9.252996445E0,1.213074923E0
8.050226563E0,-2.990453839E-1,9.250601768E0,1.258545637E0
8.055190625E0,-2.918627560E-1,9.322389603E0,1.268112898E0
8.060153125E0,-3.134010136E-1,9.272139549E0,1.222651720E0
8.065117188E0,-3.038241863E-1,9.324783325E0,1.174796462E0
8.070079688E0,-3.205740452E-1,9.279312134E0,1.213074923E0
8.075042188E0,-3.421122730E-1,9.233851433E0,1.179575324E0
8.080006250E0,-2.822955251E-1,9.255389214E0,1.155652523E0
8.084968750E0,-1.889695525E-1,9.229063034E0,1.272901297E0
8.089932813E0,-2.865380608E-2,9.264957428E0,1.177190661E0
8.094895313E0,-8.369170874E-2,9.245813370E0,1.146075726E0
8.099859375E0,-4.540364072E-2,9.238640785E0,1.241795778E0
8.104821875E0,2.159569971E-2,9.272139549E0,1.349467874E0
8.109784375E0,1.149025261E-1,9.181207657E0,1.287256956E0
8.114748438E0,1.603731960E-1,9.197957993E0,1.193940520E0
8.119710938E0,1.484021842E-1,9.150102615E0,1.270507097E0
8.124675000E0,2.345455736E-1,9.118996620E0,1.289651155E0
8.129637500E0,2.034401149E-1,9.154891014E0,1.287256956E0
8.134601563E0,2.393339872E-1,9.162073135E0,1.287256956E0
8.139564063E0,2.584780157E-1,9.114209175E0,1.344689012E0
8.144526563E0,2.632568479E-1,9.164458275E0,1.430822849E0
8.149490625E0,1.890844703E-1,9.202746391E0,1.502610564E0
8.154453125E0,1.795076579E-1,9.159679413E0,1.483466506E0
8.159417188E0,1.484021842E-1,9.178823471E0,1.569609880E0
8.164379688E0,1.340465695E-1,9.169246674E0,1.538504362E0
8.169342188E0,5.748957023E-2,9.185996056E0,1.548071623E0
8.174306250E0,2.451662440E-3,9.197957993E0,1.550465822E0
8.179268750E0,-5.736507475E-2,9.195572853E0,1.375794411E0
8.184232813E0,-9.804734588E-2,9.217101097E0,1.354256272E0
8.189195313E0,-1.435084492E-1,9.229063034E0,1.217863441E0
8.194159375E0,-2.009405643E-1,9.233851433E0,1.205901980E0
8.199121875E0,-2.751129270E-1,9.236246109E0,1.172402263E0
8.204085938E0,-2.272576243E-1,9.257783890E0,1.162825465E0
8.209048438E0,-2.703245282E-1,9.185996056E0,1.136508465E0
8.214010938E0,-2.775071263E-1,9.221890450E0,1.071903229E0
8.218975000E0,-3.181893826E-1,9.190785408E0,1.031220913E0
8.223937500E0,-2.248634249E-1,9.252996445E0,9.546543956E-1
8.228900000E0,-1.674408913E-1,9.236246109E0,8.996165395E-1
8.233864063E0,-1.794023216E-1,9.248207092E0,8.397997618E-1
8.238826563E0,-1.554698795E-1,9.154891014E0,9.067991376E-1
8.243790625E0,-1.889695525E-1,9.133352280E0,9.402987957E-1
8.248753125E0,-1.243644133E-1,9.123785019E0,9.091932774E-1
8.253717188E0,-1.650466919E-1,9.118996620E0,9.857599139E-1
8.258679688E0,-2.272576243E-1,9.128574371E0,9.642215967E-1
8.263642188E0,-1.506910622E-1,9.164458275E0,1.002509713E0
8.268606250E0,-2.081135809E-1,9.128574371E0,1.004903913E0
8.273568750E0,-2.799013257E-1,9.075930595E0,1.024047971E0
8.278532813E0,-2.679399252E-1,9.092679977E0,1.074297428E0
8.283495313E0,-2.296518236E-1,9.054391861E0,1.091047287E0
8.288459375E0,-2.129019946E-1,9.126179695E0,1.050364971E0
8.293421875E0,-1.650466919E-1,9.109429359E0,9.546543956E-1
8.298384375E0,-1.746139228E-1,9.073535919E0,9.929425120E-1
8.303348438E0,-1.291528195E-1,9.075930595E0,9.905482531E-1
8.308310938E0,-1.530852467E-1,8.973036766E0,9.833656549E-1
8.313273438E0,-1.100087836E-1,8.999354362E0,9.977213144E-1
8.318237500E0,-1.124029830E-1,9.044825554E0,1.057547569E0
8.323200000E0,-1.004415527E-1,9.042430878E0,1.179575324E0
8.328164063E0,-1.124029830E-1,8.951498985E0,1.193940520E0
8.333126563E0,-6.933607906E-2,9.013710022E0,1.191546321E0
8.338090625E0,-2.386540174E-2,8.956287384E0,1.193940520E0
8.343054688E0,-2.386540174E-2,8.925181389E0,1.181969523E0
8.348017188E0,4.073973373E-2,8.920393944E0,1.079076290E0
8.352979688E0,5.270116776E-2,8.901248932E0,9.833656549E-1
8.357943750E0,9.576806426E-2,8.958682060E0,9.929425120E-1
8.362906250E0,1.149025261E-1,8.968249321E0,9.355103970E-1
8.367870313E0,5.746084207E-5,9.047208786E0,1.064720750E0
8.372832813E0,4.845864139E-3,9.001748085E0,1.079076290E0
8.377796875E0,2.638410218E-2,9.099853516E0,1.153258204E0
8.382757813E0,5.746084207E-5,9.107036591E0,1.088653088E0
8.387721875E0,-9.804734588E-2,9.059180260E0,1.107797146E0
8.392684375E0,-1.530852467E-1,9.147707939E0,1.146075726E0
8.397648438E0,-2.176903933E-1,9.147707939E0,1.141296744E0
8.402610938E0,-2.176903933E-1,9.145323753E0,1.186757922E0
8.407575000E0,-2.033347636E-1,9.166852951E0,1.186757922E0
8.412537500E0,-7.890331000E-2,9.142930031E0,1.112575889E0
8.417500000E0,2.451662440E-3,9.099853516E0,1.107797146E0
8.422464063E0,9.634267539E-3,9.133352280E0,1.088653088E0
8.427428125E0,8.141243458E-2,8.996959686E0,1.050364971E0
8.432390625E0,8.620083332E-2,9.001748085E0,1.086258888E0
8.437353125E0,1.172967330E-1,8.939537048E0,1.146075726E0
8.442315625E0,1.436233670E-1,8.958682060E0,1.225046039E0
8.447279688E0,1.579789966E-1,8.915604591E0,1.186757922E0
8.452242188E0,1.771230400E-1,8.915604591E0,1.079076290E0
8.457206250E0,1.603731960E-1,8.953892708E0,1.047970772E0
8.462168750E0,1.531905979E-1,8.884498596E0,9.163663387E-1
8.467131250E0,1.531905979E-1,8.879720688E0,1.002509713E0
8.472095313E0,1.196909323E-1,8.917999268E0,9.091932774E-1
8.477057813E0,1.484021842E-1,8.862970352E0,9.522601962E-1
8.482021875E0,1.029410958E-1,8.884498596E0,9.259431362E-1
8.486984375E0,2.451662440E-3,8.879720688E0,9.570485950E-1
8.491948438E0,7.423940301E-2,8.961074829E0,9.761926532E-1
8.496910938E0,-1.429817267E-2,8.944326401E0,9.857599139E-1
8.501873438E0,-5.975927413E-2,8.982604027E0,1.126941204E0
8.506837500E0,-1.004415527E-1,8.951498985E0,1.158046603E0
8.511800000E0,-8.129751682E-2,8.906038284E0,1.146075726E0
8.516764063E0,-1.530852467E-1,9.018498421E0,1.165219545E0
8.521726563E0,-1.530852467E-1,9.051998138E0,1.170008063E0
8.526689063E0,-1.506910622E-1,9.066353798E0,1.148469806E0
8.531653125E0,-2.176903933E-1,9.042430878E0,1.105402946E0
8.536615625E0,-1.578640938E-1,9.044825554E0,1.117364407E0
8.541579688E0,-1.674408913E-1,9.056786537E0,1.117364407E0
8.546542188E0,-2.535746992E-1,9.020892143E0,1.004903913E0
8.551506250E0,-1.650466919E-1,9.042430878E0,9.570485950E-1
8.556468750E0,-2.224692255E-1,9.023285866E0,1.038403511E0
8.561431250E0,-2.511900663E-1,9.092679977E0,9.163663387E-1
8.566395313E0,-2.846897244E-1,9.006537437E0,9.953366518E-1
8.571357813E0,-1.937579513E-1,8.992180824E0,9.163663387E-1
8.576321875E0,-2.200750262E-1,8.944326401E0,9.307219982E-1
8.581284375E0,-1.794023216E-1,8.917999268E0,9.379045963E-1
8.586248438E0,-1.243644133E-1,8.901248932E0,1.052759290E0
8.591210938E0,-8.369170874E-2,8.925181389E0,1.064720750E0
8.596173438E0,1.441309415E-2,8.982604027E0,1.134114146E0
8.601137500E0,-4.721365869E-3,8.992180824E0,1.251363039E0
8.606100000E0,3.116292879E-2,9.037642479E0,1.359044671E0
8.611064063E0,9.576806426E-2,9.059180260E0,1.399717450E0
8.616026563E0,2.398990095E-2,9.135746956E0,1.430822849E0
8.620990625E0,-1.190397050E-2,9.169246674E0,1.476293445E0
8.625953125E0,-1.124029830E-1,9.164458275E0,1.385361671E0
8.630915625E0,-1.794023216E-1,9.238640785E0,1.315968156E0
8.635879688E0,-2.057193965E-1,9.209928513E0,1.225046039E0
8.640842188E0,-2.751129270E-1,9.229063034E0,1.198719382E0
8.645806250E0,-2.631514966E-1,9.241034508E0,1.136508465E0
8.650768750E0,-2.918627560E-1,9.296062469E0,1.064720750E0
8.655732813E0,-3.564679027E-1,9.166852951E0,1.033615232E0
8.660695313E0,-3.325450420E-1,9.130958557E0,9.259431362E-1
8.665657813E0,-3.564679027E-1,9.044825554E0,8.517611623E-1
8.670621875E0,-2.368248552E-1,9.059180260E0,7.225509286E-1
8.675584375E0,-1.219702139E-1,8.992180824E0,7.488679886E-1
8.680548438E0,-4.540364072E-2,8.903643608E0,6.459843516E-1
8.685510938E0,-8.369170874E-2,8.915604591E0,6.124846935E-1
8.690475000E0,2.638410218E-2,8.800749779E0,5.813696384E-1
8.695439063E0,9.338344634E-2,8.695472717E0,5.598409176E-1
8.700400000E0,1.603731960E-1,8.638039589E0,6.555515528E-1
8.705364063E0,2.441223711E-1,8.554290771E0,6.005136967E-1
8.710326563E0,3.135063350E-1,8.573435783E0,5.718024373E-1
8.715290625E0,2.752278447E-1,8.489686012E0,6.627342105E-1
8.720253125E0,3.326503932E-1,8.482502937E0,7.704062462E-1
8.725217188E0,3.087275028E-1,8.506435394E0,7.608389854E-1
8.730179688E0,3.206889629E-1,8.523185730E0,8.996165395E-1
8.735142188E0,2.680452466E-1,8.575829506E0,9.546543956E-1
8.740106250E0,2.106227130E-1,8.489686012E0,1.000115514E0
8.745068750E0,1.699404269E-1,8.604540825E0,1.033615232E0
8.750032813E0,7.423940301E-2,8.671540260E0,1.059941769E0
8.754995313E0,6.705679744E-2,8.709828377E0,1.047970772E0
8.759959375E0,-2.386540174E-2,8.702645302E0,9.450871348E-1
8.764921875E0,-1.052203774E-1,8.793577194E0,8.445882201E-1
8.769884375E0,-2.057193965E-1,8.812721252E0,8.134731650E-1
8.774848438E0,-3.277566135E-1,8.812721252E0,7.680120468E-1
8.779810938E0,-3.469006717E-1,8.908432007E0,8.039059043E-1
8.784775000E0,-4.497938752E-1,8.944326401E0,7.536563873E-1
8.789737500E0,-5.239662528E-1,8.937143326E0,8.230499029E-1
8.794701563E0,-4.952549636E-1,8.958682060E0,8.134731650E-1
8.799664063E0,-4.593611062E-1,8.968249321E0,8.732994199E-1
8.804626563E0,-3.923617899E-1,8.977825165E0,8.876550794E-1
8.809590625E0,-3.612563312E-1,8.941931725E0,9.355103970E-1
8.814553125E0,-2.703245282E-1,8.973036766E0,1.021653771E0
8.819517188E0,-1.626524776E-1,8.944326401E0,1.098220348E0
8.824479688E0,-2.625960298E-2,8.951498985E0,1.138902545E0
8.829443750E0,2.398990095E-2,8.910825729E0,1.196325064E0
8.834406250E0,1.316523552E-1,8.953892708E0,1.038403511E0
8.839368750E0,1.795076579E-1,8.877326012E0,1.165219545E0
8.844332813E0,1.866902709E-1,8.939537048E0,1.057547569E0
8.849295313E0,8.620083332E-2,8.815105438E0,1.038403511E0
8.854259375E0,1.723346412E-1,8.917999268E0,9.809715152E-1
8.859221875E0,1.555848122E-1,8.953892708E0,9.953366518E-1
8.864184375E0,2.225841433E-1,9.023285866E0,1.076691628E0
8.869150000E0,1.627578288E-1,9.042430878E0,1.047970772E0
8.874112500E0,1.460079998E-1,9.049603462E0,1.095826149E0
8.879075000E0,1.412291676E-1,9.037642479E0,1.052759290E0
8.884037500E0,1.244793311E-1,9.142930031E0,1.091047287E0
8.889001563E0,2.465070039E-1,9.130958557E0,1.134114146E0
8.893964063E0,2.441223711E-1,9.164458275E0,1.201113582E0
8.898926563E0,3.159005344E-1,9.205141068E0,1.234613180E0
8.903890625E0,2.010459006E-1,9.257783890E0,1.284862638E0
8.908853125E0,1.531905979E-1,9.262563705E0,1.277689695E0
8.913817188E0,1.220851392E-1,9.365455627E0,1.294439435E0
8.918779688E0,1.220851392E-1,9.367850304E0,1.265718579E0
8.923743750E0,1.125083268E-1,9.351100922E0,1.229824781E0
8.928706250E0,5.509537086E-2,9.382205963E0,1.114970207E0
8.933668750E0,9.634267539E-3,9.449205399E0,1.055153489E0
8.938632813E0,-3.583640978E-2,9.487493515E0,1.045586228E0
8.943595313E0,-1.602582783E-1,9.391782761E0,1.059941769E0
8.948559375E0,-2.224692255E-1,9.453993797E0,1.036009431E0
8.953521875E0,-3.445064723E-1,9.468349457E0,1.059941769E0
8.958485938E0,-3.827945590E-1,9.465954781E0,9.857599139E-1
8.963448438E0,-4.306498468E-1,9.506637573E0,8.302229643E-1
8.968410938E0,-4.378228784E-1,9.523387909E0,8.278383017E-1
8.973375000E0,-4.473996758E-1,9.511416435E0,8.972222805E-1
8.978339063E0,-3.756119311E-1,9.568848610E0,8.063001037E-1
8.983301563E0,-3.612563312E-1,9.525781631E0,8.063001037E-1
8.988264063E0,-3.301508427E-1,9.475532532E0,8.421939611E-1
8.993228125E0,-1.865849346E-1,9.442031860E0,8.780878186E-1
8.998190625E0,-2.009405643E-1,9.394176483E0,9.642215967E-1
9.003154688E0,-1.315470189E-1,9.420494080E0,1.059941769E0
9.008117188E0,-1.052203774E-1,9.489887238E0,1.160440803E0
9.013079688E0,-1.147971824E-1,9.465954781E0,1.265718579E0
9.018043750E0,-5.258624628E-2,9.504242897E0,1.366217613E0
9.023006250E0,1.680729724E-2,9.489887238E0,1.237007499E0
9.027970313E0,5.746084207E-5,9.523387909E0,1.155652523E0
9.032932813E0,6.945100427E-2,9.375033379E0,9.809715152E-1
9.037895313E0,1.555848122E-1,9.298457146E0,8.924434781E-1
9.042859375E0,2.154015303E-1,9.339139938E0,6.962338090E-1
9.047821875E0,3.015449345E-1,9.322389603E0,7.105894685E-1
9.052785938E0,3.517944217E-1,9.264957428E0,8.182615638E-1
9.057748438E0,3.685442507E-1,9.267351151E0,8.828666210E-1
9.062710938E0,3.541886210E-1,9.252996445E0,1.004903913E0
9.067675000E0,4.403319955E-1,9.284101486E0,1.064720750E0
9.072637500E0,4.140053689E-1,9.269745827E0,1.339900613E0
9.077601563E0,3.948709071E-1,9.250601768E0,1.466716647E0
9.082564063E0,3.996497095E-1,9.319994926E0,1.512177706E0
9.087528125E0,3.398329914E-1,9.358283043E0,1.471505165E0
9.092490625E0,3.326503932E-1,9.375033379E0,1.507398963E0
9.097453125E0,2.704394460E-1,9.377428055E0,1.421255589E0
9.102417188E0,9.576806426E-2,9.501849174E0,1.349467874E0
9.107379688E0,8.380663395E-2,9.487493515E0,1.246574640E0
9.112343750E0,-5.497087166E-2,9.547310829E0,1.203507662E0
9.117306250E0,-8.369170874E-2,9.544916153E0,1.126941204E0
9.122270313E0,-1.865849346E-1,9.552098274E0,1.174796462E0
9.127232813E0,-2.392190546E-1,9.602347374E0,1.177190661E0
9.132195313E0,-2.822955251E-1,9.595166206E0,1.114970207E0
9.137159375E0,-2.559688985E-1,9.604742050E0,1.043192029E0
9.142121875E0,-2.105077952E-1,9.607136726E0,9.666158557E-1
9.147085938E0,-1.530852467E-1,9.623887062E0,9.905482531E-1
9.152048438E0,-9.804734588E-2,9.640635490E0,9.929425120E-1
9.157010938E0,-8.608591557E-2,9.671741486E0,1.040797710E0
9.161975000E0,3.355713189E-2,9.611914635E0,1.062336087E0
9.166939063E0,1.125083268E-1,9.609530449E0,1.036009431E0
9.171901563E0,1.723346412E-1,9.585598946E0,1.079076290E0
9.176864063E0,2.249783427E-1,9.540136337E0,1.062336087E0
9.181828125E0,2.345455736E-1,9.568848610E0,1.167613864E0
9.186790625E0,1.507963985E-1,9.559281349E0,1.287256956E0
9.191754688E0,7.184520364E-2,9.645415306E0,1.440399647E0
9.196717188E0,-1.429817267E-2,9.647809982E0,1.550465822E0
9.201679688E0,-9.325893968E-2,9.681308746E0,1.533716083E0
9.206643750E0,-2.344402373E-1,9.683703423E0,1.430822849E0
9.211606250E0,-2.990453839E-1,9.693280220E0,1.251363039E0
9.216570313E0,-3.325450420E-1,9.678915024E0,1.083864689E0
9.221532813E0,-3.086126149E-1,9.650202751E0,8.852608800E-1
9.226496875E0,-3.564679027E-1,9.638241768E0,7.943387032E-1
9.231459375E0,-3.827945590E-1,9.705241203E0,8.206557035E-1
9.236421875E0,-4.426112771E-1,9.726778984E0,8.517611623E-1
9.241385938E0,-4.282556474E-1,9.724386215E0,8.158673048E-1
9.246348438E0,-4.139000177E-1,9.714808464E0,7.440891862E-1
9.251312500E0,-4.330440462E-1,9.695664406E0,8.182615638E-1
9.256275000E0,-4.258614480E-1,9.698058128E0,8.086943030E-1
9.261237500E0,-4.713225365E-1,9.738740921E0,9.115875363E-1
9.266201563E0,-4.402170777E-1,9.719596863E0,8.780878186E-1
9.271164063E0,-3.851887584E-1,9.769846916E0,9.785868526E-1
9.276128125E0,-3.564679027E-1,9.791384697E0,1.028836250E0
9.281090625E0,-3.827945590E-1,9.781807899E0,9.881540537E-1
9.286054688E0,-3.827945590E-1,9.800951958E0,9.522601962E-1
9.291017188E0,-3.564679027E-1,9.793779373E0,9.953366518E-1
9.295979688E0,-3.038241863E-1,9.803345680E0,1.002509713E0
9.300943750E0,-3.373238444E-1,9.803345680E0,1.114970207E0
9.305906250E0,-3.062183857E-1,9.834450722E0,1.268112898E0
9.310870313E0,-2.416132689E-1,9.882307053E0,1.320756555E0
9.315832813E0,-2.511900663E-1,9.808135033E0,1.423649788E0
9.320796875E0,-2.392190546E-1,9.844018936E0,1.399717450E0
9.325759375E0,-2.464016527E-1,9.817702293E0,1.457149386E0
9.330721875E0,-1.865849346E-1,9.860768318E0,1.397323132E0
9.335685938E0,-1.387200505E-1,9.836845398E0,1.344689012E0
9.340648438E0,-1.698351055E-1,9.930162430E0,1.344689012E0
9.345612500E0,-2.105077952E-1,9.913412094E0,1.344689012E0
9.350575000E0,-2.583630979E-1,9.946911812E0,1.311189294E0
9.355539063E0,-2.152961940E-1,9.937344551E0,1.246574640E0
9.360501563E0,-2.846897244E-1,9.925383568E0,1.193940520E0
9.365465625E0,-2.200750262E-1,9.932557106E0,1.256151438E0
9.370428125E0,-1.770081222E-1,9.978017807E0,1.110191226E0
9.375390625E0,-1.794023216E-1,9.925383568E0,1.174796462E0
9.380354688E0,-1.459026486E-1,9.958883286E0,1.181969523E0
9.385317188E0,-1.052203774E-1,9.920595169E0,1.148469806E0
9.390281250E0,-1.669237576E-2,9.887095451E0,1.148469806E0
9.395243750E0,5.746084207E-5,9.882307053E0,1.189152122E0
9.400206250E0,7.184520364E-2,9.805740356E0,1.143691063E0
9.405170313E0,1.101237014E-1,9.808135033E0,1.246574640E0
9.410132813E0,8.859504014E-2,9.812912941E0,1.244190097E0
9.415096875E0,8.620083332E-2,9.774634361E0,1.260939837E0
9.420059375E0,1.507963985E-1,9.772240639E0,1.313573956E0
9.425023438E0,1.388349682E-1,9.779414177E0,1.275295496E0
9.429985938E0,6.466259807E-2,9.800951958E0,1.210690260E0
9.434948438E0,9.576806426E-2,9.733952522E0,1.122152686E0
9.439912500E0,1.244793311E-1,9.717203140E0,1.141296744E0
9.444875000E0,1.077295020E-1,9.733952522E0,1.064720750E0
9.449839063E0,1.125083268E-1,9.726778984E0,1.031220913E0
9.454801563E0,1.202846877E-2,9.798557281E0,1.000115514E0
9.459765625E0,-2.386540174E-2,9.791384697E0,1.019259572E0
9.464728125E0,-1.171913818E-1,9.777029037E0,1.038403511E0
9.469690625E0,-1.626524776E-1,9.808135033E0,1.093441486E0
9.474653125E0,-2.775071263E-1,9.822490692E0,1.112575889E0
9.479617188E0,-2.679399252E-1,9.851201057E0,9.857599139E-1
9.484581250E0,-3.516891003E-1,9.810519218E0,1.026442170E0
9.489543750E0,-3.110068142E-1,9.846412659E0,9.690100551E-1
9.494506250E0,-3.253624141E-1,9.827268600E0,8.876550794E-1
9.499468750E0,-3.540737033E-1,9.769846916E0,8.326171637E-1
9.504432813E0,-2.966511548E-1,9.896661758E0,9.402987957E-1
9.509395313E0,-3.373238444E-1,9.851201057E0,9.833656549E-1
9.514359375E0,-3.253624141E-1,9.848807335E0,1.059941769E0
9.519323438E0,-3.325450420E-1,9.887095451E0,1.148469806E0
9.524285938E0,-3.301508427E-1,9.887095451E0,1.311189294E0
9.529248438E0,-2.775071263E-1,9.844018936E0,1.363823533E0
9.534210938E0,-2.535746992E-1,9.844018936E0,1.471505165E0
9.539175000E0,-1.674408913E-1,9.844018936E0,1.555254221E0
9.544137500E0,-1.865849346E-1,9.879913330E0,1.524148822E0
9.549101563E0,-5.019204319E-2,9.934949875E0,1.445178509E0
9.554064063E0,-1.267586201E-1,9.932557106E0,1.459543705E0
9.559028125E0,4.845864139E-3,9.891883850E0,1.289651155E0
9.563990625E0,4.313393682E-2,9.848807335E0,1.122152686E0
9.568954688E0,1.388349682E-1,9.753096581E0,1.033615232E0
9.573917188E0,1.531905979E-1,9.769846916E0,8.709052205E-1
9.578881250E0,1.819018722E-1,9.796163559E0,8.661168218E-1
9.583843750E0,1.292581707E-1,9.777029037E0,8.924434781E-1
9.588806250E0,2.489012182E-1,9.788990021E0,9.115875363E-1
9.593770313E0,1.268735379E-1,9.834450722E0,9.737984538E-1
9.598732813E0,9.815269709E-2,9.889489174E0,1.126941204E0
9.603696875E0,1.484021842E-1,9.865556717E0,1.143691063E0
9.608659375E0,1.675462276E-1,9.870346069E0,1.253757238E0
9.613621875E0,1.292581707E-1,9.863162994E0,1.234613180E0
9.618584375E0,8.620083332E-2,9.932557106E0,1.201113582E0
9.623548438E0,3.595133126E-2,9.887095451E0,1.232218981E0
9.628510938E0,1.202846877E-2,9.906239510E0,1.253757238E0
9.633475000E0,-5.258624628E-2,9.870346069E0,1.210690260E0
9.638439063E0,-3.344221041E-2,9.891883850E0,1.186757922E0
9.643401563E0,-4.061523825E-2,9.867951393E0,1.227440238E0
9.648364063E0,-5.258624628E-2,9.908634186E0,1.215469122E0
9.653328125E0,-1.195855886E-1,9.841633797E0,1.299218416E0
9.658290625E0,-1.459026486E-1,9.927767754E0,1.354256272E0
9.663253125E0,-2.176903933E-1,9.956489563E0,1.356650352E0
9.668217188E0,-1.913637519E-1,9.946911812E0,1.237007499E0
9.673179688E0,-1.841907203E-1,9.911018372E0,1.315968156E0
9.678143750E0,-1.865849346E-1,9.913412094E0,1.189152122E0
9.683106250E0,-1.363354176E-1,9.848807335E0,1.189152122E0
9.688068750E0,-2.147120051E-2,9.772240639E0,1.126941204E0
9.693032813E0,5.746084207E-5,9.867951393E0,1.088653088E0
9.697995313E0,7.240065839E-3,9.808135033E0,1.091047287E0
9.702959375E0,8.141243458E-2,9.760279655E0,1.122152686E0
9.707923438E0,1.268735379E-1,9.743529320E0,1.275295496E0
9.712885938E0,1.268735379E-1,9.786596298E0,1.414072990E0
9.717848438E0,1.149025261E-1,9.829663277E0,1.502610564E0
9.722810938E0,2.877830528E-2,9.817702293E0,1.569609880E0
9.727775000E0,5.270116776E-2,9.815307617E0,1.502610564E0
9.732737500E0,7.663360238E-2,9.915806770E0,1.569609880E0
9.737701563E0,1.077295020E-1,9.920595169E0,1.473899245E0
9.742664063E0,6.945100427E-2,9.930162430E0,1.287256956E0
9.747628125E0,-4.540364072E-2,9.865556717E0,1.205901980E0
9.752590625E0,-4.061523825E-2,9.887095451E0,1.081470490E0
9.757553125E0,-5.975927413E-2,9.836845398E0,1.045586228E0
9.762517188E0,-7.172070444E-2,9.848807335E0,9.450871348E-1
9.767481250E0,-1.243644133E-1,9.887095451E0,9.211547375E-1
9.772443750E0,-2.176903933E-1,9.882307053E0,6.890512705E-1
9.777406250E0,-1.889695525E-1,9.877518654E0,7.728003860E-1
9.782368750E0,-2.535746992E-1,9.930162430E0,8.230499029E-1
9.787332813E0,-2.511900663E-1,9.982805252E0,9.235489368E-1
9.792295313E0,-2.344402373E-1,9.946911812E0,1.007298112E0
9.797259375E0,-2.775071263E-1,9.932557106E0,1.055153489E0
9.802221875E0,-3.492948711E-1,9.939739227E0,1.177190661E0
9.807185938E0,-3.732177317E-1,9.896661758E0,1.198719382E0
9.812148438E0,-2.822955251E-1,9.954094887E0,1.033615232E0
9.817110938E0,-3.038241863E-1,9.961267471E0,9.618370533E-1
9.822075000E0,-2.751129270E-1,9.973237991E0,8.828666210E-1
9.827037500E0,-2.511900663E-1,9.966055870E0,8.565496206E-1
9.832001563E0,-3.110068142E-1,9.982805252E0,8.852608800E-1
9.836964063E0,-3.469006717E-1,1.001151752E1,8.732994199E-1
9.841928125E0,-3.660447001E-1,1.003066158E1,9.331161380E-1
9.846890625E0,-3.564679027E-1,1.003544903E1,9.953366518E-1
9.851853125E0,-2.870743573E-1,1.001151752E1,1.141296744E0
9.856817188E0,-2.751129270E-1,1.002109337E1,1.153258204E0
9.861779688E0,-2.679399252E-1,9.989988327E0,1.203507662E0
9.866743750E0,-1.554698795E-1,9.989988327E0,1.361438870E0
9.871706250E0,-1.100087836E-1,1.000434399E1,1.337506413E0
9.876670313E0,-4.779784381E-2,9.989988327E0,1.490649223E0
9.881632813E0,-1.004415527E-1,9.920595169E0,1.507398963E0
9.886595313E0,-1.171913818E-1,9.961267471E0,1.406899929E0
9.891559375E0,-5.497087166E-2,9.877518654E0,1.323150754E0
9.896523438E0,1.920149848E-2,9.808135033E0,1.143691063E0
9.901485938E0,9.634267539E-3,9.822490692E0,1.050364971E0
9.906448438E0,9.634267539E-3,9.829663277E0,1.019259572E0
9.911412500E0,3.355713189E-2,9.817702293E0,9.020106792E-1
9.916376563E0,-7.115567569E-3,9.846412659E0,9.379045963E-1
9.921337500E0,-9.565314651E-2,9.812912941E0,9.355103970E-1
9.926303125E0,-6.694187969E-2,9.820096016E0,9.618370533E-1
9.931265625E0,-1.052203774E-1,9.839240074E0,1.016865373E0
9.936228125E0,-1.429817267E-2,9.765057564E0,1.000115514E0
9.941190625E0,-5.258624628E-2,9.705241203E0,1.016865373E0
9.946153125E0,-1.669237576E-2,9.755491257E0,1.028836250E0
9.951117188E0,-3.583640978E-2,9.721991539E0,1.095826149E0
9.956079688E0,-6.694187969E-2,9.659780502E0,1.205901980E0
9.961043750E0,-5.019204319E-2,9.736346245E0,1.208296180E0
9.966006250E0,-8.369170874E-2,9.733952522E0,1.270507097E0
9.970970313E0,-6.933607906E-2,9.681308746E0,1.337506413E0
9.975934375E0,-7.650911063E-2,9.674136162E0,1.423649788E0
9.980896875E0,-9.804734588E-2,9.757884979E0,1.445178509E0
9.985859375E0,-7.411490381E-2,9.762663841E0,1.361438870E0
9.990823438E0,-1.435084492E-1,9.774634361E0,1.342294812E0
9.995785938E0,-1.674408913E-1,9.712413788E0,1.318362474E0
1.000074844E1,-2.176903933E-1,9.726778984E0,1.196325064E0
1.000571250E1,-1.530852467E-1,9.777029037E0,1.150864005E0
1.001067500E1,-9.565314651E-2,9.774634361E0,1.112575889E0
1.001563906E1,-1.028357521E-1,9.733952522E0,1.028836250E0
1.002060156E1,-9.804734588E-2,9.721991539E0,1.050364971E0
1.002556406E1,-5.258624628E-2,9.781807899E0,1.026442170E0
1.003052812E1,-7.411490381E-2,9.721991539E0,9.785868526E-1
1.003549063E1,-8.608591557E-2,9.757884979E0,9.761926532E-1
1.004045469E1,-1.961521655E-1,9.702846527E0,9.402987957E-1
1.004541719E1,-2.320460379E-1,9.726778984E0,1.012086511E0
1.005037969E1,-2.152961940E-1,9.721991539E0,1.045586228E0
1.005534375E1,-2.296518236E-1,9.757884979E0,9.474717975E-1
1.006030781E1,-2.296518236E-1,9.731558800E0,9.977213144E-1
1.006527188E1,-3.181893826E-1,9.753096581E0,9.235489368E-1
1.007023438E1,-3.469006717E-1,9.796163559E0,9.450871348E-1
1.007519688E1,-3.899675608E-1,9.784202576E0,9.355103970E-1
1.008015938E1,-3.277566135E-1,9.796163559E0,8.732994199E-1
1.008512188E1,-3.134010136E-1,9.788990021E0,8.517611623E-1
1.009008594E1,-3.445064723E-1,9.741134644E0,8.254441619E-1
1.009505000E1,-2.942569554E-1,9.791384697E0,8.565496206E-1
1.010001250E1,-1.698351055E-1,9.846412659E0,8.134731650E-1
1.010497500E1,-9.325893968E-2,9.851201057E0,8.254441619E-1
1.010993906E1,-6.215347722E-2,9.841633797E0,8.637226820E-1
1.011490156E1,-3.104800731E-2,9.863162994E0,8.685110211E-1
1.011986406E1,1.920149848E-2,9.834450722E0,9.498660564E-1
1.012482812E1,1.202846877E-2,9.858384132E0,1.081470490E0
1.012979062E1,1.531905979E-1,9.927767754E0,1.308795214E0
1.013475469E1,1.866902709E-1,9.918201447E0,1.493043303E0
1.013971719E1,2.225841433E-1,9.908634186E0,1.550465822E0
1.014468125E1,2.297571748E-1,9.915806770E0,1.646176457E0
1.014964375E1,2.536896169E-1,9.913412094E0,1.646176457E0
1.015460625E1,2.824008763E-1,9.934949875E0,1.591148138E0
1.015957031E1,3.278715611E-1,9.970844269E0,1.655753255E0
1.016453281E1,2.417281866E-1,9.887095451E0,1.562427282E0
1.016949688E1,2.058342993E-1,9.903844833E0,1.538504362E0
1.017445938E1,1.101237014E-1,9.956489563E0,1.567215681E0
1.017942344E1,1.220851392E-1,9.918201447E0,1.387755871E0
1.018438750E1,3.595133126E-2,9.961267471E0,1.404505730E0
1.018934844E1,-8.369170874E-2,9.884700775E0,1.258545637E0
1.019431250E1,-9.804734588E-2,9.920595169E0,1.081470490E0
1.019927500E1,-2.751129270E-1,9.877518654E0,8.996165395E-1
1.020423906E1,-2.368248552E-1,9.939739227E0,7.728003860E-1
1.020920156E1,-2.727187276E-1,9.913412094E0,6.340133548E-1
1.021416563E1,-3.421122730E-1,9.927767754E0,5.837638378E-1
1.021912969E1,-3.827945590E-1,9.911018372E0,5.526583791E-1
1.022409219E1,-4.354382753E-1,9.930162430E0,5.933406353E-1
1.022905469E1,-3.899675608E-1,9.903844833E0,5.478699207E-1
1.023401719E1,-4.115057886E-1,9.963662148E0,6.699072123E-1
1.023898125E1,-4.091115892E-1,9.980412483E0,7.369065285E-1
1.024394375E1,-3.732177317E-1,9.884700775E0,8.469727635E-1
1.024890781E1,-3.134010136E-1,9.908634186E0,9.187605381E-1
1.025387031E1,-2.296518236E-1,9.934949875E0,9.402987957E-1
1.025883281E1,-1.626524776E-1,9.937344551E0,1.153258204E0
1.026379688E1,-1.387200505E-1,9.922988892E0,1.177190661E0
