"Time (s)","Gyroscope x (rad/s)","Gyroscope y (rad/s)","Gyroscope z (rad/s)"
0.000000000E0,5.412440300E-1,2.044653177E0,2.404924154E0
4.943750000E-3,5.412440300E-1,2.044653177E0,2.404924154E0
9.906250000E-3,0.000000000E0,0.000000000E0,0.000000000E0
1.487031300E-2,9.075712296E-4,-1.797689125E-3,3.141592606E-4
1.983281300E-2,9.075712296E-4,-1.797689125E-3,3.141592606E-4
2.479687500E-2,4.782202188E-3,-6.789330859E-3,-3.316125658E-4
2.975937500E-2,4.782202188E-3,-6.789330859E-3,-3.316125658E-4
3.472187500E-2,1.153662615E-2,-1.537635084E-2,-1.151917269E-3
3.968593800E-2,1.153662615E-2,-1.537635084E-2,-1.151917269E-3
4.464843800E-2,8.546702862E-1,-1.242499948E0,-8.976228535E-2
4.961250000E-2,8.546702862E-1,-1.242499948E0,-8.976228535E-2
5.457500000E-2,8.529947400E-1,-1.260808349E0,-8.969247341E-2
5.953750000E-2,8.529947400E-1,-1.260808349E0,-8.969247341E-2
6.450156300E-2,9.745045900E-1,-1.445202470E0,-1.102873534E-1
6.946562500E-2,9.745045900E-1,-1.445202470E0,-1.102873534E-1
7.442812500E-2,1.039989352E0,-1.565106511E0,-1.341634542E-1
7.939062500E-2,1.039989352E0,-1.565106511E0,-1.341634542E-1
8.435468800E-2,1.043235660E0,-1.553430319E0,-1.436929554E-1
8.931718800E-2,1.043235660E0,-1.553430319E0,-1.436929554E-1
9.427968800E-2,1.019900560E0,-1.513427377E0,-1.520705372E-1
9.924375000E-2,1.019900560E0,-1.513427377E0,-1.520705372E-1
1.042062500E-1,9.893049598E-1,-1.485589385E0,-1.544616371E-1
1.091703130E-1,9.893049598E-1,-1.485589385E0,-1.544616371E-1
1.141328130E-1,9.432981014E-1,-1.421972156E0,-1.785995364E-1
1.190968750E-1,9.432981014E-1,-1.421972156E0,-1.785995364E-1
1.240593750E-1,8.824210167E-1,-1.311004043E0,-2.286206782E-1
1.290218750E-1,8.824210167E-1,-1.311004043E0,-2.286206782E-1
1.339859380E-1,8.078605533E-1,-1.147135139E0,-2.886425555E-1
1.389484380E-1,8.078605533E-1,-1.147135139E0,-2.886425555E-1
1.439125000E-1,7.280291915E-1,-9.670869112E-1,-3.376514018E-1
1.488750000E-1,7.280291915E-1,-9.670869112E-1,-3.376514018E-1
1.538390630E-1,6.526833177E-1,-8.221373558E-1,-3.587175310E-1
1.588015630E-1,6.526833177E-1,-8.221373558E-1,-3.587175310E-1
1.637640630E-1,5.872160196E-1,-7.319037914E-1,-3.509508073E-1
1.687281250E-1,5.872160196E-1,-7.319037914E-1,-3.509508073E-1
1.736906250E-1,5.286078453E-1,-6.661747098E-1,-3.292912543E-1
1.786546880E-1,5.286078453E-1,-6.661747098E-1,-3.292912543E-1
1.836171880E-1,4.747295678E-1,-5.967106223E-1,-2.991494238E-1
1.885812500E-1,4.747295678E-1,-5.967106223E-1,-2.991494238E-1
1.935437500E-1,4.268028140E-1,-5.535835028E-1,-2.707878351E-1
1.985062500E-1,4.268028140E-1,-5.535835028E-1,-2.707878351E-1
2.034703130E-1,3.826808929E-1,-5.082398653E-1,-2.441191971E-1
2.084328130E-1,3.826808929E-1,-5.082398653E-1,-2.441191971E-1
2.133968750E-1,3.413165808E-1,-4.633849263E-1,-2.196845859E-1
2.183593750E-1,3.413165808E-1,-4.633849263E-1,-2.196845859E-1
2.233234380E-1,3.045599461E-1,-4.244117141E-1,-1.976585388E-1
2.282859380E-1,3.045599461E-1,-4.244117141E-1,-1.976585388E-1
2.332500000E-1,2.708925605E-1,-3.678455949E-1,-1.761211753E-1
2.382125000E-1,2.708925605E-1,-3.678455949E-1,-1.761211753E-1
2.431750000E-1,2.404365540E-1,-3.214198351E-1,-1.532399058E-1
2.481390630E-1,2.404365540E-1,-3.214198351E-1,-1.532399058E-1
2.531015630E-1,2.119178772E-1,-2.805093229E-1,-1.257509738E-1
2.580640630E-1,2.119178772E-1,-2.805093229E-1,-1.257509738E-1
2.630281250E-1,1.853365153E-1,-2.442064732E-1,-9.698794782E-2
2.679906250E-1,1.853365153E-1,-2.442064732E-1,-9.698794782E-2
2.729546880E-1,1.593311131E-1,-2.106437832E-1,-7.084291428E-2
2.779171880E-1,1.593311131E-1,-2.106437832E-1,-7.084291428E-2
2.828812500E-1,1.351757497E-1,-1.809382886E-1,-4.888667166E-2
2.878437500E-1,1.351757497E-1,-1.809382886E-1,-4.888667166E-2
2.928062500E-1,1.120501384E-1,-1.567131132E-1,-3.230604529E-2
2.977703130E-1,1.120501384E-1,-1.567131132E-1,-3.230604529E-2
3.027328130E-1,8.885471523E-2,-1.346870512E-1,-2.272418700E-2
3.076968750E-1,8.885471523E-2,-1.346870512E-1,-2.272418700E-2
3.126593750E-1,6.747443229E-2,-1.120501384E-1,-1.877974346E-2
3.176234380E-1,6.747443229E-2,-1.120501384E-1,-1.877974346E-2
3.225859380E-1,7.367035002E-2,-1.296430528E-1,-2.200860158E-2
3.275500000E-1,7.367035002E-2,-1.296430528E-1,-2.200860158E-2
3.325125000E-1,8.342673630E-2,-1.620712727E-1,-2.921681106E-2
3.374750000E-1,8.342673630E-2,-1.620712727E-1,-2.921681106E-2
3.424390630E-1,8.419468254E-2,-1.924050897E-1,-3.721041977E-2
3.474015630E-1,8.419468254E-2,-1.924050897E-1,-3.721041977E-2
3.523640630E-1,7.724827528E-2,-2.106088847E-1,-3.975860029E-2
3.573281250E-1,7.724827528E-2,-2.106088847E-1,-3.975860029E-2
3.622906250E-1,7.478735596E-2,-2.174505740E-1,-4.548327997E-2
3.672546880E-1,7.478735596E-2,-2.174505740E-1,-4.548327997E-2
3.722171880E-1,7.110471278E-2,-2.352005690E-1,-6.421066076E-2
3.771812500E-1,7.110471278E-2,-2.352005690E-1,-6.421066076E-2
3.821437500E-1,5.752605200E-2,-1.995085925E-1,-8.211774379E-2
3.871078130E-1,5.752605200E-2,-1.995085925E-1,-8.211774379E-2
3.920703130E-1,3.700098023E-2,-1.374446750E-1,-8.841837943E-2
3.970328130E-1,3.700098023E-2,-1.374446750E-1,-8.841837943E-2
4.019968750E-1,2.830924094E-2,-1.314756572E-1,-8.772024512E-2
4.069593750E-1,2.830924094E-2,-1.314756572E-1,-8.772024512E-2
4.119234380E-1,2.092649788E-2,-1.343379915E-1,-7.759733498E-2
4.168859380E-1,2.092649788E-2,-1.343379915E-1,-7.759733498E-2
4.218484380E-1,-6.108652335E-3,-9.032078832E-2,-5.794493109E-2
4.268125000E-1,-6.108652335E-3,-9.032078832E-2,-5.794493109E-2
4.317750000E-1,-4.527384043E-2,-1.748819835E-2,-3.551745042E-2
4.367390630E-1,-4.527384043E-2,-1.748819835E-2,-3.551745042E-2
4.417031250E-1,-7.511897385E-2,5.077162758E-2,-1.776745170E-2
4.466656250E-1,-7.511897385E-2,5.077162758E-2,-1.776745170E-2
4.516281250E-1,-8.194320649E-2,6.047565863E-2,-1.375319436E-2
4.565906250E-1,-8.194320649E-2,6.047565863E-2,-1.375319436E-2
4.615546880E-1,-7.764969766E-2,3.298672289E-2,-4.607669078E-3
4.665171880E-1,-7.764969766E-2,3.298672289E-2,-4.607669078E-3
4.714812500E-1,-7.449065149E-2,-9.948377265E-4,9.599311277E-3
4.764437500E-1,-7.449065149E-2,-9.948377265E-4,9.599311277E-3
4.814078130E-1,-7.618362457E-2,-1.057669520E-2,2.335250564E-2
4.863703130E-1,-7.618362457E-2,-1.057669520E-2,2.335250564E-2
4.913343750E-1,-7.855726779E-2,-8.045967668E-3,3.347541392E-2
4.962968750E-1,-7.855726779E-2,-8.045967668E-3,3.347541392E-2
5.012593750E-1,-7.529350370E-2,-1.984439418E-2,3.824016452E-2
5.062234380E-1,-7.529350370E-2,-1.984439418E-2,3.824016452E-2
5.111859380E-1,-7.108726352E-2,-2.378883772E-2,4.077089205E-2
5.161500000E-1,-7.108726352E-2,-2.378883772E-2,4.077089205E-2
5.211125000E-1,-6.630505621E-2,-2.324778587E-2,4.691445082E-2
5.260750000E-1,-6.630505621E-2,-2.324778587E-2,4.691445082E-2
5.310390630E-1,-6.147049740E-2,-3.818780556E-2,4.979424179E-2
5.360015630E-1,-6.147049740E-2,-3.818780556E-2,4.979424179E-2
5.409640630E-1,-5.897467583E-2,-5.002113804E-2,4.909611121E-2
5.459281250E-1,-5.897467583E-2,-5.002113804E-2,4.909611121E-2
5.508906250E-1,-5.534439161E-2,-6.314601004E-2,4.490732029E-2
5.558546880E-1,-5.534439161E-2,-6.314601004E-2,4.490732029E-2
5.608171880E-1,-4.874704406E-2,-8.386307210E-2,3.536036983E-2
5.657812500E-1,-4.874704406E-2,-8.386307210E-2,3.536036983E-2
5.707437500E-1,-3.998549283E-2,-1.131147891E-1,2.413790300E-2
5.757062500E-1,-3.998549283E-2,-1.131147891E-1,2.413790300E-2
5.806703130E-1,-3.152064607E-2,-1.376541108E-1,1.567305624E-2
5.856343750E-1,-3.152064607E-2,-1.376541108E-1,1.567305624E-2
5.905968750E-1,-2.549926005E-2,-1.512502283E-1,7.993607782E-3
5.955609380E-1,-2.549926005E-2,-1.512502283E-1,7.993607782E-3
6.005218750E-1,-1.939060725E-2,-1.850921661E-1,-9.861109778E-3
6.054859380E-1,-1.939060725E-2,-1.850921661E-1,-9.861109778E-3
6.104484380E-1,-8.918632753E-3,-1.881988496E-1,-2.792526782E-2
6.154125000E-1,-8.918632753E-3,-1.881988496E-1,-2.792526782E-2
6.203765630E-1,6.527531426E-3,-1.882162988E-1,-3.879866749E-2
6.253390630E-1,6.527531426E-3,-1.882162988E-1,-3.879866749E-2
6.303015630E-1,9.965829551E-3,-1.939409822E-1,-4.597197101E-2
6.352656250E-1,9.965829551E-3,-1.939409822E-1,-4.597197101E-2
6.402296880E-1,-5.759586347E-4,-1.812873483E-1,-3.817034885E-2
6.451921880E-1,-5.759586347E-4,-1.812873483E-1,-3.817034885E-2
6.501546880E-1,-1.211258490E-2,-1.583013684E-1,-2.506292798E-2
6.551187500E-1,-1.211258490E-2,-1.583013684E-1,-2.506292798E-2
6.600796880E-1,-1.837831736E-2,-1.443038285E-1,-1.448623277E-2
6.650453130E-1,-1.837831736E-2,-1.443038285E-1,-1.448623277E-2
6.700078130E-1,-4.155628756E-2,-1.051386371E-1,-5.934119690E-4
6.749718750E-1,-4.155628756E-2,-1.051386371E-1,-5.934119690E-4
6.799328130E-1,-9.906488657E-2,-4.991641734E-3,1.701696031E-2
6.848968750E-1,-9.906488657E-2,-4.991641734E-3,1.701696031E-2
6.898609380E-1,-1.614080518E-1,9.489355236E-2,3.279473633E-2
6.948234380E-1,-1.614080518E-1,9.489355236E-2,3.279473633E-2
6.997875000E-1,-1.972047538E-1,1.196074113E-1,5.070181563E-2
7.047500000E-1,-1.972047538E-1,1.196074113E-1,5.070181563E-2
7.097125000E-1,-2.031388730E-1,9.478883445E-2,7.248352468E-2
7.146765630E-1,-2.031388730E-1,9.478883445E-2,7.248352468E-2
7.196390630E-1,-1.957212240E-1,7.140141726E-2,8.539895713E-2
7.246031250E-1,-1.957212240E-1,7.140141726E-2,8.539895713E-2
7.295656250E-1,-1.816887707E-1,3.998549283E-2,8.923868090E-2
7.345296880E-1,-1.816887707E-1,3.998549283E-2,8.923868090E-2
7.394921880E-1,-1.691049486E-1,3.176499158E-3,9.054768085E-2
7.444546880E-1,-1.691049486E-1,3.176499158E-3,9.054768085E-2
7.494171880E-1,-1.607448310E-1,-4.939281847E-3,9.492845833E-2
7.543812500E-1,-1.607448310E-1,-4.939281847E-3,9.492845833E-2
7.593437500E-1,-1.540776640E-1,-1.225221157E-2,1.012989059E-1
7.643062500E-1,-1.540776640E-1,-1.225221157E-2,1.012989059E-1
7.692718750E-1,-1.477770209E-1,-1.865756884E-2,1.097113937E-1
7.742343750E-1,-1.477770209E-1,-1.865756884E-2,1.097113937E-1
7.791968750E-1,-1.417905539E-1,-2.415535599E-2,1.188220158E-1
7.841609380E-1,-1.417905539E-1,-2.415535599E-2,1.188220158E-1
7.891234380E-1,-1.376192123E-1,-1.970476657E-2,1.290670931E-1
7.940875000E-1,-1.376192123E-1,-1.970476657E-2,1.290670931E-1
7.990500000E-1,-1.358913332E-1,-2.789036185E-2,1.376890242E-1
8.040125000E-1,-1.358913332E-1,-2.789036185E-2,1.376890242E-1
8.089765630E-1,-1.339714676E-1,-3.427826613E-2,1.471836120E-1
8.139390630E-1,-1.339714676E-1,-3.427826613E-2,1.471836120E-1
8.189015630E-1,-1.300270259E-1,-5.302310362E-2,1.550375968E-1
8.238640630E-1,-1.300270259E-1,-5.302310362E-2,1.550375968E-1
8.288281250E-1,-1.256986111E-1,-6.051056460E-2,1.619316489E-1
8.337906250E-1,-1.256986111E-1,-6.051056460E-2,1.619316489E-1
8.387546880E-1,-1.209862232E-1,-6.846926361E-2,1.608669907E-1
8.437171880E-1,-1.209862232E-1,-6.846926361E-2,1.608669907E-1
8.486796880E-1,-1.144586951E-1,-6.789331138E-2,1.604830176E-1
8.536453130E-1,-1.144586951E-1,-6.789331138E-2,1.604830176E-1
8.586078130E-1,-1.065698043E-1,-5.841616914E-2,1.630835682E-1
8.635718750E-1,-1.065698043E-1,-5.841616914E-2,1.630835682E-1
8.685343750E-1,-9.836675972E-2,-7.398450375E-2,1.639736891E-1
8.734968750E-1,-9.836675972E-2,-7.398450375E-2,1.639736891E-1
8.784609380E-1,-9.073966742E-2,-7.497934252E-2,1.707979143E-1
8.834234380E-1,-9.073966742E-2,-7.497934252E-2,1.707979143E-1
8.883859380E-1,-8.363617957E-2,-8.374089748E-2,1.796641946E-1
8.933484380E-1,-8.363617957E-2,-8.374089748E-2,1.796641946E-1
8.983125000E-1,-7.712610066E-2,-8.911651373E-2,1.917942315E-1
9.032765630E-1,-7.712610066E-2,-8.911651373E-2,1.917942315E-1
9.082390630E-1,-7.113961875E-2,-1.019621342E-1,2.057568580E-1
9.132031250E-1,-7.113961875E-2,-1.019621342E-1,2.057568580E-1
9.181640630E-1,-6.557202339E-2,-1.053655297E-1,2.170142382E-1
9.231281250E-1,-6.557202339E-2,-1.053655297E-1,2.170142382E-1
9.280906250E-1,-6.066764519E-2,-1.068490595E-1,2.196496874E-1
9.330546880E-1,-6.066764519E-2,-1.068490595E-1,2.196496874E-1
9.380187500E-1,-5.516985804E-2,-9.663888067E-2,2.172934860E-1
9.429812500E-1,-5.516985804E-2,-9.663888067E-2,2.172934860E-1
9.479453130E-1,-4.993386939E-2,-8.035495877E-2,2.210110426E-1
9.529062500E-1,-4.993386939E-2,-8.035495877E-2,2.210110426E-1
9.578703130E-1,-4.047418386E-2,-6.377433240E-2,2.151118368E-1
9.628328130E-1,-4.047418386E-2,-6.377433240E-2,2.151118368E-1
9.677968750E-1,-1.972221956E-2,-6.328564137E-2,2.044478655E-1
9.727609380E-1,-1.972221956E-2,-6.328564137E-2,2.044478655E-1
9.777234380E-1,3.694862127E-2,-1.408480704E-1,1.859124750E-1
9.826859380E-1,3.694862127E-2,-1.408480704E-1,1.859124750E-1
9.876484380E-1,1.166403517E-1,-2.782403827E-1,1.538856775E-1
9.926125000E-1,1.166403517E-1,-2.782403827E-1,1.538856775E-1
9.975765630E-1,1.791405976E-1,-3.679153919E-1,1.252099127E-1
1.002540625E0,1.791405976E-1,-3.679153919E-1,1.252099127E-1
1.007503125E0,1.966986060E-1,-3.956312239E-1,1.083151326E-1
1.012465625E0,1.966986060E-1,-3.956312239E-1,1.083151326E-1
1.017428125E0,1.757022887E-1,-3.569896519E-1,1.055226028E-1
1.022392188E0,1.757022887E-1,-3.569896519E-1,1.055226028E-1
1.027356250E0,1.454382837E-1,-3.089232743E-1,1.092750654E-1
1.032318750E0,1.454382837E-1,-3.089232743E-1,1.092750654E-1
1.037282813E0,1.191710830E-1,-2.750639021E-1,1.191710830E-1
1.042243750E0,1.191710830E-1,-2.750639021E-1,1.191710830E-1
1.047207813E0,9.868091345E-2,-2.501056790E-1,1.345997900E-1
1.052170313E0,9.868091345E-2,-2.501056790E-1,1.345997900E-1
1.057132813E0,8.354891092E-2,-2.342406362E-1,1.515294909E-1
1.062096875E0,8.354891092E-2,-2.342406362E-1,1.515294909E-1
1.067059375E0,7.241371274E-2,-2.270149738E-1,1.651081443E-1
1.072023438E0,7.241371274E-2,-2.270149738E-1,1.651081443E-1
1.076985938E0,6.339035928E-2,-2.178345472E-1,1.694365591E-1
1.081950000E0,6.339035928E-2,-2.178345472E-1,1.694365591E-1
1.086914063E0,5.544910952E-2,-1.968905926E-1,1.584933549E-1
1.091875000E0,5.544910952E-2,-1.968905926E-1,1.584933549E-1
1.096839063E0,5.108578876E-2,-1.711993515E-1,1.350884885E-1
1.101801563E0,5.108578876E-2,-1.711993515E-1,1.350884885E-1
1.106765625E0,4.899139330E-2,-1.480562836E-1,1.085594818E-1
1.111728125E0,4.899139330E-2,-1.480562836E-1,1.085594818E-1
1.116692188E0,4.673991725E-2,-1.280024499E-1,8.478809148E-2
1.121654688E0,4.673991725E-2,-1.280024499E-1,8.478809148E-2
1.126617188E0,4.651302472E-2,-1.200088412E-1,6.824237108E-2
1.131581250E0,4.651302472E-2,-1.200088412E-1,6.824237108E-2
1.136545313E0,5.414011329E-2,-1.002168059E-1,5.220279843E-2
1.141507813E0,5.414011329E-2,-1.002168059E-1,5.220279843E-2
1.146470313E0,6.586872786E-2,-8.246680349E-2,7.033676840E-3
1.151434375E0,6.586872786E-2,-8.246680349E-2,7.033676840E-3
1.156396875E0,7.761479169E-2,-4.673991725E-2,-6.066764519E-2
1.161359375E0,7.761479169E-2,-4.673991725E-2,-6.066764519E-2
1.166323438E0,8.461356163E-2,-8.150687441E-3,-1.272519529E-1
1.171287500E0,8.461356163E-2,-8.150687441E-3,-1.272519529E-1
1.176250000E0,7.991862297E-2,2.452187613E-2,-1.629090309E-1
1.181214063E0,7.991862297E-2,2.452187613E-2,-1.629090309E-1
1.186176563E0,6.956882030E-2,6.084217876E-2,-1.766622216E-1
1.191139063E0,6.956882030E-2,6.084217876E-2,-1.766622216E-1
1.196101563E0,5.923647434E-2,7.487462461E-2,-1.820552945E-1
1.201065625E0,5.923647434E-2,7.487462461E-2,-1.820552945E-1
1.206028125E0,5.379104614E-2,6.974335760E-2,-1.800830662E-1
1.210992188E0,5.379104614E-2,6.974335760E-2,-1.800830662E-1
1.215956250E0,3.886848316E-2,8.595746756E-2,-1.696285456E-1
1.220918750E0,3.886848316E-2,8.595746756E-2,-1.696285456E-1
1.225881250E0,1.705186628E-2,1.155757010E-1,-1.564687639E-1
1.230843750E0,1.705186628E-2,1.155757010E-1,-1.564687639E-1
1.235807813E0,-1.902408898E-3,1.344078034E-1,-1.435009688E-1
1.240770313E0,-1.902408898E-3,1.344078034E-1,-1.435009688E-1
1.245732813E0,-1.099557430E-2,1.398008764E-1,-1.307426095E-1
1.250696875E0,-1.099557430E-2,1.398008764E-1,-1.307426095E-1
1.255660938E0,-1.459095255E-2,1.255938858E-1,-1.223999411E-1
1.260623438E0,-1.459095255E-2,1.255938858E-1,-1.223999411E-1
1.265585938E0,-1.574287005E-2,1.148426607E-1,-1.147553995E-1
1.270550000E0,-1.574287005E-2,1.148426607E-1,-1.147553995E-1
1.275512500E0,-1.291543618E-2,1.021541208E-1,-1.068490595E-1
1.280476563E0,-1.291543618E-2,1.021541208E-1,-1.068490595E-1
1.285439063E0,-1.518436428E-2,1.080358773E-1,-1.012989059E-1
1.290401563E0,-1.518436428E-2,1.080358773E-1,-1.012989059E-1
1.295365625E0,-2.097885683E-2,1.119279638E-1,-1.014036313E-1
1.300328125E0,-2.097885683E-2,1.119279638E-1,-1.014036313E-1
1.305292188E0,-2.352703735E-2,1.223301291E-1,-1.056273282E-1
1.310254688E0,-2.352703735E-2,1.223301291E-1,-1.056273282E-1
1.315218750E0,-1.876228862E-2,1.241278127E-1,-1.141968891E-1
1.320181250E0,-1.876228862E-2,1.241278127E-1,-1.141968891E-1
1.325143750E0,-1.228711754E-2,1.318596303E-1,-1.225744709E-1
1.330107813E0,-1.228711754E-2,1.318596303E-1,-1.225744709E-1
1.335070313E0,-9.983283468E-3,1.509360671E-1,-1.289449185E-1
1.340034375E0,-9.983283468E-3,1.509360671E-1,-1.289449185E-1
1.344996875E0,-1.623156248E-3,1.687035263E-1,-1.347743273E-1
1.349959375E0,-1.623156248E-3,1.687035263E-1,-1.347743273E-1
1.354923438E0,9.686577134E-3,1.757197529E-1,-1.444434524E-1
1.359885938E0,9.686577134E-3,1.757197529E-1,-1.444434524E-1
1.364850000E0,2.769837528E-2,1.638166010E-1,-1.548106968E-1
1.369812500E0,2.769837528E-2,1.638166010E-1,-1.548106968E-1
1.374776563E0,5.494296551E-2,1.268679798E-1,-1.673770696E-1
1.379739063E0,5.494296551E-2,1.268679798E-1,-1.673770696E-1
1.384701563E0,8.808676898E-2,7.377506793E-2,-1.805717647E-1
1.389665625E0,8.808676898E-2,7.377506793E-2,-1.805717647E-1
1.394628125E0,1.169196069E-1,2.200860158E-2,-1.915498823E-1
1.399592188E0,1.169196069E-1,2.200860158E-2,-1.915498823E-1
1.404554688E0,1.297477782E-1,1.001818944E-2,-1.914800704E-1
1.409518750E0,1.297477782E-1,1.001818944E-2,-1.914800704E-1
1.414481250E0,1.309695095E-1,-9.791296907E-3,-1.844638437E-1
1.419445313E0,1.309695095E-1,-9.791296907E-3,-1.844638437E-1
1.424407813E0,1.244943365E-1,-1.160643995E-2,-1.684068143E-1
1.429370313E0,1.244943365E-1,-1.160643995E-2,-1.684068143E-1
1.434334375E0,1.108109504E-1,1.919862255E-2,-1.456651837E-1
1.439296875E0,1.108109504E-1,1.919862255E-2,-1.456651837E-1
1.444260938E0,9.515535086E-2,4.122467712E-2,-1.246514171E-1
1.449223438E0,9.515535086E-2,4.122467712E-2,-1.246514171E-1
1.454185938E0,8.058185130E-2,5.335471407E-2,-1.071108580E-1
1.459150000E0,8.058185130E-2,5.335471407E-2,-1.071108580E-1
1.464112500E0,7.010987401E-2,6.473426521E-2,-9.464920312E-2
1.469076563E0,7.010987401E-2,6.473426521E-2,-9.464920312E-2
1.474039063E0,6.347762793E-2,5.279621109E-2,-7.847000659E-2
1.479003125E0,6.347762793E-2,5.279621109E-2,-7.847000659E-2
1.483965625E0,6.021386012E-2,2.919935808E-2,-5.710717291E-2
1.488928125E0,6.021386012E-2,2.919935808E-2,-5.710717291E-2
1.493892188E0,6.206390634E-2,-1.096066739E-2,-3.967133537E-2
1.498854688E0,6.206390634E-2,-1.096066739E-2,-3.967133537E-2
1.503818750E0,7.096508890E-2,-5.438445881E-2,-3.164282069E-2
1.508781250E0,7.096508890E-2,-5.438445881E-2,-3.164282069E-2
1.513745313E0,8.943066746E-2,-1.084722131E-1,-3.085742146E-2
1.518707813E0,8.943066746E-2,-1.084722131E-1,-3.085742146E-2
1.523670313E0,1.133591309E-1,-1.552644968E-1,-3.467969224E-2
1.528634375E0,1.133591309E-1,-1.552644968E-1,-3.467969224E-2
1.533596875E0,1.296779662E-1,-1.883210242E-1,-4.070107639E-2
1.538560938E0,1.296779662E-1,-1.883210242E-1,-4.070107639E-2
1.543523438E0,1.302364618E-1,-1.929636002E-1,-4.260348529E-2
1.548485938E0,1.302364618E-1,-1.929636002E-1,-4.260348529E-2
1.553450000E0,1.189441904E-1,-1.715658605E-1,-3.810053691E-2
1.558412500E0,1.189441904E-1,-1.715658605E-1,-3.810053691E-2
1.563376563E0,1.016305238E-1,-1.433089823E-1,-3.651228920E-2
1.568339063E0,1.016305238E-1,-1.433089823E-1,-3.651228920E-2
1.573303125E0,8.314748853E-2,-1.080184281E-1,-3.726277873E-2
1.578265625E0,8.314748853E-2,-1.080184281E-1,-3.726277873E-2
1.583228125E0,6.831218302E-2,-8.431685716E-2,-4.468042776E-2
1.588192188E0,6.831218302E-2,-8.431685716E-2,-4.468042776E-2
1.593154688E0,5.993460491E-2,-5.935864896E-2,-5.869542435E-2
1.598118750E0,5.993460491E-2,-5.935864896E-2,-5.869542435E-2
1.603081250E0,4.881685972E-2,-4.300491139E-2,-7.325147092E-2
1.608045313E0,4.881685972E-2,-4.300491139E-2,-7.325147092E-2
1.613007813E0,4.106759652E-2,-2.230530791E-2,-8.470083028E-2
1.617971875E0,4.106759652E-2,-2.230530791E-2,-8.470083028E-2
1.622934375E0,4.138175771E-2,-1.663298719E-2,-9.414306283E-2
1.627896875E0,4.138175771E-2,-1.663298719E-2,-9.414306283E-2
1.632860938E0,4.235913977E-2,-1.333431527E-2,-9.922196716E-2
1.637823438E0,4.235913977E-2,-1.333431527E-2,-9.922196716E-2
1.642787500E0,4.087560996E-2,-1.031489577E-2,-1.028173491E-1
1.647750000E0,4.087560996E-2,-1.031489577E-2,-1.028173491E-1
1.652714063E0,3.811798990E-2,-9.110618383E-3,-1.052608043E-1
1.657676563E0,3.811798990E-2,-9.110618383E-3,-1.052608043E-1
1.662639063E0,4.057890549E-2,-2.649409883E-2,-1.058542207E-1
1.667603125E0,4.057890549E-2,-2.649409883E-2,-1.058542207E-1
1.672565625E0,5.480333790E-2,-5.745624006E-2,-1.045975834E-1
1.677529688E0,5.480333790E-2,-5.745624006E-2,-1.045975834E-1
1.682492188E0,7.442083955E-2,-8.805186301E-2,-1.000422761E-1
1.687454688E0,7.442083955E-2,-8.805186301E-2,-1.000422761E-1
1.692418750E0,7.936012000E-2,-9.693558514E-2,-9.164723754E-2
1.697381250E0,7.936012000E-2,-9.693558514E-2,-9.164723754E-2
1.702345313E0,6.342526525E-2,-7.764969766E-2,-7.983136177E-2
1.707307813E0,6.342526525E-2,-7.764969766E-2,-7.983136177E-2
1.712271875E0,4.434881732E-2,-5.853834376E-2,-6.845181435E-2
1.717234375E0,4.434881732E-2,-5.853834376E-2,-6.845181435E-2
1.722196875E0,3.192207217E-2,-5.722934753E-2,-6.052801758E-2
1.727160938E0,3.192207217E-2,-5.722934753E-2,-6.052801758E-2
1.732123438E0,2.895501256E-2,-6.752678752E-2,-5.579817668E-2
1.737087500E0,2.895501256E-2,-6.752678752E-2,-5.579817668E-2
1.742050000E0,5.829399452E-3,-4.534365237E-2,-4.719370231E-2
1.747012500E0,5.829399452E-3,-4.534365237E-2,-4.719370231E-2
1.751976563E0,-3.286454827E-2,-6.440265104E-3,-3.722787276E-2
1.756939063E0,-3.286454827E-2,-6.440265104E-3,-3.722787276E-2
1.761901563E0,-7.110471278E-2,4.406956211E-2,-2.768092230E-2
1.766865625E0,-7.110471278E-2,4.406956211E-2,-2.768092230E-2
1.771828125E0,-8.799950033E-2,5.405284837E-2,-2.387610450E-2
1.776792188E0,-8.799950033E-2,5.405284837E-2,-2.387610450E-2
1.781754688E0,-8.777260780E-2,6.878342479E-2,-2.043780498E-2
1.786718750E0,-8.777260780E-2,6.878342479E-2,-2.043780498E-2
1.791681250E0,-8.241444826E-2,7.501424849E-2,-2.452187613E-2
1.796643750E0,-8.241444826E-2,7.501424849E-2,-2.452187613E-2
1.801607813E0,-7.667231560E-2,7.878416032E-2,-3.735004738E-2
1.806571875E0,-7.667231560E-2,7.878416032E-2,-3.735004738E-2
1.811534375E0,-7.004006207E-2,7.798130810E-2,-5.736897141E-2
1.816496875E0,-7.004006207E-2,7.798130810E-2,-5.736897141E-2
1.821460938E0,-6.438519806E-2,8.820894361E-2,-7.897614688E-2
1.826423438E0,-6.438519806E-2,8.820894361E-2,-7.897614688E-2
1.831387500E0,-6.140068173E-2,1.074599251E-1,-9.929177910E-2
1.836350000E0,-6.140068173E-2,1.074599251E-1,-9.929177910E-2
1.841314063E0,-6.044075266E-2,1.230457127E-1,-1.135685742E-1
1.846276563E0,-6.044075266E-2,1.230457127E-1,-1.135685742E-1
1.851240625E0,-6.084217876E-2,1.322436035E-1,-1.152266338E-1
1.856203125E0,-6.084217876E-2,1.322436035E-1,-1.152266338E-1
1.861165625E0,-6.469935179E-2,1.392772794E-1,-1.080707833E-1
1.866128125E0,-6.469935179E-2,1.392772794E-1,-1.080707833E-1
1.871092188E0,-7.255333662E-2,1.437802166E-1,-9.620254487E-2
1.876054688E0,-7.255333662E-2,1.437802166E-1,-9.620254487E-2
1.881018750E0,-7.983136177E-2,1.453161091E-1,-8.206538111E-2
1.885981250E0,-7.983136177E-2,1.453161091E-1,-8.206538111E-2
1.890945313E0,-8.122762293E-2,1.396263391E-1,-6.876597553E-2
1.895907813E0,-8.122762293E-2,1.396263391E-1,-6.876597553E-2
1.900870313E0,-7.948229462E-2,1.344252527E-1,-5.871287733E-2
1.905834375E0,-7.948229462E-2,1.344252527E-1,-5.871287733E-2
1.910796875E0,-7.490953058E-2,1.135860309E-1,-4.773475602E-2
1.915759375E0,-7.490953058E-2,1.135860309E-1,-4.773475602E-2
1.920723438E0,-7.281513512E-2,8.698721230E-2,-2.522000670E-2
1.925685938E0,-7.281513512E-2,8.698721230E-2,-2.522000670E-2
1.930650000E0,-7.515387982E-2,6.222098693E-2,2.513274085E-3
1.935614063E0,-7.515387982E-2,6.222098693E-2,2.513274085E-3
1.940576563E0,-8.148942143E-2,5.775294453E-2,2.424262278E-2
1.945540625E0,-8.148942143E-2,5.775294453E-2,2.424262278E-2
1.950501563E0,-8.798204362E-2,6.911503524E-2,3.364994749E-2
1.955467188E0,-8.798204362E-2,6.911503524E-2,3.364994749E-2
1.960428125E0,-9.100146592E-2,7.634069771E-2,3.293436393E-2
1.965392188E0,-9.100146592E-2,7.634069771E-2,3.293436393E-2
1.970354688E0,-8.820894361E-2,8.262388408E-2,2.701769583E-2
1.975317188E0,-8.820894361E-2,8.262388408E-2,2.701769583E-2
1.980281250E0,-8.040732145E-2,8.349654824E-2,1.890191622E-2
1.985243750E0,-8.040732145E-2,8.349654824E-2,1.890191622E-2
1.990207813E0,-6.740461290E-2,6.354743987E-2,1.213003788E-2
1.995171875E0,-6.740461290E-2,6.354743987E-2,1.213003788E-2
2.000134375E0,-5.272639543E-2,3.303908184E-2,3.141592722E-3
2.005098438E0,-5.272639543E-2,3.303908184E-2,3.141592722E-3
2.010060938E0,-3.942698613E-2,1.668534800E-2,-1.766273193E-2
2.015025000E0,-3.942698613E-2,1.668534800E-2,-1.766273193E-2
2.019987500E0,-3.181735054E-2,5.340707488E-3,-4.576253146E-2
2.024950000E0,-3.181735054E-2,5.340707488E-3,-4.576253146E-2
2.029912500E0,-2.012364566E-2,-1.980948634E-2,-7.098253816E-2
2.034876563E0,-2.012364566E-2,-1.980948634E-2,-7.098253816E-2
2.039839063E0,9.965829551E-3,-6.373942643E-2,-8.803440630E-2
2.044801563E0,9.965829551E-3,-6.373942643E-2,-8.803440630E-2
2.049765625E0,4.785692692E-2,-1.256637126E-1,-9.838420898E-2
2.054728125E0,4.785692692E-2,-1.256637126E-1,-9.838420898E-2
2.059692188E0,6.536258012E-2,-1.437627673E-1,-1.005309671E-1
2.064654688E0,6.536258012E-2,-1.437627673E-1,-1.005309671E-1
2.069618750E0,5.982988700E-2,-1.335176826E-1,-9.604547173E-2
2.074581250E0,5.982988700E-2,-1.335176826E-1,-9.604547173E-2
2.079543750E0,4.504694790E-2,-1.145459563E-1,-8.602727950E-2
2.084507813E0,4.504694790E-2,-1.145459563E-1,-8.602727950E-2
2.089470313E0,3.033382259E-2,-9.220574051E-2,-7.323401421E-2
2.094434375E0,3.033382259E-2,-9.220574051E-2,-7.323401421E-2
2.099396875E0,1.876228862E-2,-7.899360359E-2,-6.452482194E-2
2.104359375E0,1.876228862E-2,-7.899360359E-2,-6.452482194E-2
2.109323438E0,1.235693134E-2,-8.382816613E-2,-5.408775434E-2
2.114287500E0,1.235693134E-2,-8.382816613E-2,-5.408775434E-2
2.119251563E0,9.232792072E-3,-9.035569429E-2,-3.139847144E-2
2.124214063E0,9.232792072E-3,-9.035569429E-2,-3.139847144E-2
2.129176563E0,5.462880712E-3,-9.658651799E-2,6.457717973E-4
2.134139063E0,5.462880712E-3,-9.658651799E-2,6.457717973E-4
2.139101563E0,1.274090377E-3,-1.171290427E-1,3.368485346E-2
2.144067188E0,1.274090377E-3,-1.171290427E-1,3.368485346E-2
2.149028125E0,-1.117010717E-3,-1.457000822E-1,6.092944369E-2
2.153992188E0,-1.117010717E-3,-1.457000822E-1,6.092944369E-2
2.158954688E0,-5.410520826E-4,-1.521752626E-1,7.916813344E-2
2.163918750E0,-5.410520826E-4,-1.521752626E-1,7.916813344E-2
2.168882813E0,8.028514567E-4,-1.462585926E-1,8.827875555E-2
2.173845313E0,8.028514567E-4,-1.462585926E-1,8.827875555E-2
2.178807813E0,2.583087189E-3,-1.340238303E-1,8.716174215E-2
2.183771875E0,2.583087189E-3,-1.340238303E-1,8.716174215E-2
2.188735938E0,1.153662615E-2,-1.502379477E-1,7.377506793E-2
2.193698438E0,1.153662615E-2,-1.502379477E-1,7.377506793E-2
2.198660938E0,1.970476657E-2,-1.640260369E-1,5.756095797E-2
2.203623438E0,1.970476657E-2,-1.640260369E-1,5.756095797E-2
2.208585938E0,1.975712739E-2,-1.651081443E-1,4.464552179E-2
2.213550000E0,1.975712739E-2,-1.651081443E-1,4.464552179E-2
2.218514063E0,1.607448235E-2,-1.641656756E-1,3.604104742E-2
2.223476563E0,1.607448235E-2,-1.641656756E-1,3.604104742E-2
2.228440625E0,1.303760987E-2,-1.681101173E-1,2.743657492E-2
2.233403125E0,1.303760987E-2,-1.681101173E-1,2.743657492E-2
2.238367188E0,1.342158206E-2,-1.752485037E-1,1.488765888E-2
2.243329688E0,1.342158206E-2,-1.752485037E-1,1.488765888E-2
2.248293750E0,1.391027402E-2,-1.637293398E-1,7.906341925E-3
2.253256250E0,1.391027402E-2,-1.637293398E-1,7.906341925E-3
2.258218750E0,1.591740362E-2,-1.708851904E-1,1.083849464E-2
2.263182813E0,1.591740362E-2,-1.708851904E-1,1.083849464E-2
2.268145313E0,1.663298719E-2,-1.840624213E-1,1.834340952E-2
2.273109375E0,1.663298719E-2,-1.840624213E-1,1.834340952E-2
2.278070313E0,1.504473854E-2,-1.847780049E-1,2.562143281E-2
2.283034375E0,1.504473854E-2,-1.847780049E-1,2.562143281E-2
2.287998438E0,1.349139493E-2,-1.957037747E-1,2.174680308E-2
2.292960938E0,1.349139493E-2,-1.957037747E-1,2.174680308E-2
2.297925000E0,1.122246683E-2,-1.926843524E-1,3.312635049E-2
2.302887500E0,1.122246683E-2,-1.926843524E-1,3.312635049E-2
2.307850000E0,2.635447076E-3,-1.841845959E-1,6.845181435E-2
2.312814063E0,2.635447076E-3,-1.841845959E-1,6.845181435E-2
2.317776563E0,-2.045525797E-2,-1.495223492E-1,1.220683306E-1
2.322739063E0,-2.045525797E-2,-1.495223492E-1,1.220683306E-1
2.327703125E0,-6.372196972E-2,-9.567894787E-2,1.754404902E-1
2.332667188E0,-6.372196972E-2,-9.567894787E-2,1.754404902E-1
2.337628125E0,-1.163261905E-1,-7.661995478E-3,2.049540132E-1
2.342593750E0,-1.163261905E-1,-7.661995478E-3,2.049540132E-1
2.347554688E0,-1.573937982E-1,7.447320223E-2,2.192133516E-1
2.352518750E0,-1.573937982E-1,7.447320223E-2,2.192133516E-1
2.357481250E0,-1.775872558E-1,1.217018068E-1,2.199463844E-1
2.362445313E0,-1.775872558E-1,1.217018068E-1,2.199463844E-1
2.367407813E0,-1.754404902E-1,1.336224079E-1,2.104867101E-1
2.372370313E0,-1.754404902E-1,1.336224079E-1,2.104867101E-1
2.377334375E0,-1.560149789E-1,1.150695607E-1,1.949009150E-1
2.382298438E0,-1.560149789E-1,1.150695607E-1,1.949009150E-1
2.387260938E0,-1.272345036E-1,7.890633494E-2,1.773254573E-1
2.392225000E0,-1.272345036E-1,7.890633494E-2,1.773254573E-1
2.397187500E0,-1.016305238E-1,5.379104614E-2,1.622632593E-1
2.402150000E0,-1.016305238E-1,5.379104614E-2,1.622632593E-1
2.407112500E0,-8.635888994E-2,3.242821619E-2,1.477595717E-1
2.412078125E0,-8.635888994E-2,3.242821619E-2,1.477595717E-1
2.417040625E0,-7.066838443E-2,1.338667516E-2,1.336398572E-1
2.422003125E0,-7.066838443E-2,1.338667516E-2,1.336398572E-1
2.426965625E0,-4.913101718E-2,-1.647590846E-2,1.188569218E-1
2.431929688E0,-4.913101718E-2,-1.647590846E-2,1.188569218E-1
2.436892188E0,-2.888519876E-2,-5.164429173E-2,1.066745222E-1
2.441854688E0,-2.888519876E-2,-5.164429173E-2,1.066745222E-1
2.446818750E0,-1.542871073E-2,-8.998917788E-2,9.850638360E-2
2.451781250E0,-1.542871073E-2,-8.998917788E-2,9.850638360E-2
2.456745313E0,-1.106538717E-2,-1.061509252E-1,9.620254487E-2
2.461709375E0,-1.106538717E-2,-1.061509252E-1,9.620254487E-2
2.466671875E0,-1.190314535E-2,-1.130449772E-1,9.552186728E-2
2.471635938E0,-1.190314535E-2,-1.130449772E-1,9.552186728E-2
2.476596875E0,-1.588249579E-2,-1.186649352E-1,9.211847931E-2
2.481560938E0,-1.588249579E-2,-1.186649352E-1,9.211847931E-2
2.486525000E0,-1.691224054E-2,-1.319818050E-1,8.215264976E-2
2.491487500E0,-1.691224054E-2,-1.319818050E-1,8.215264976E-2
2.496451563E0,-1.595230959E-2,-1.373050511E-1,7.096508890E-2
2.501414063E0,-1.595230959E-2,-1.373050511E-1,7.096508890E-2
2.506376563E0,-2.099631168E-2,-1.061160192E-1,6.265731901E-2
2.511339063E0,-2.099631168E-2,-1.061160192E-1,6.265731901E-2
2.516303125E0,-2.638937905E-2,-7.569492608E-2,5.414011329E-2
2.521265625E0,-2.638937905E-2,-7.569492608E-2,5.414011329E-2
2.526229688E0,-2.417281084E-2,-7.511897385E-2,4.495968297E-2
2.531192188E0,-2.417281084E-2,-7.511897385E-2,4.495968297E-2
2.536156250E0,-1.527163107E-2,-7.339109480E-2,3.673918173E-2
2.541118750E0,-1.527163107E-2,-7.339109480E-2,3.673918173E-2
2.546081250E0,-6.108652335E-3,-6.469935179E-2,1.956514083E-2
2.551045313E0,-6.108652335E-3,-6.469935179E-2,1.956514083E-2
2.556007813E0,5.235987919E-5,-4.881685972E-2,-5.253441166E-3
2.560971875E0,5.235987919E-5,-4.881685972E-2,-5.253441166E-3
2.565934375E0,2.687806962E-3,-2.869321220E-2,-2.967059799E-2
2.570896875E0,2.687806962E-3,-2.869321220E-2,-2.967059799E-2
2.575860938E0,2.583087189E-3,-4.799655639E-3,-5.026548356E-2
2.580823438E0,2.583087189E-3,-4.799655639E-3,-5.026548356E-2
2.585787500E0,3.001966281E-3,1.788962446E-2,-6.738716364E-2
2.590750000E0,3.001966281E-3,1.788962446E-2,-6.738716364E-2
2.595712500E0,3.159045940E-3,3.621558100E-2,-7.813838869E-2
2.600676563E0,3.159045940E-3,3.621558100E-2,-7.813838869E-2
2.605640625E0,6.161012221E-3,4.002039880E-2,-8.632398397E-2
2.610603125E0,6.161012221E-3,4.002039880E-2,-8.632398397E-2
2.615567188E0,2.460914198E-3,6.108652335E-3,-1.830850355E-2
2.620529688E0,2.460914198E-3,6.108652335E-3,-1.830850355E-2
2.625493750E0,4.590216093E-3,4.328416660E-3,-2.101376466E-2
2.630456250E0,4.590216093E-3,4.328416660E-3,-2.101376466E-2
2.635418750E0,6.806783844E-3,1.867502346E-3,-2.317797206E-2
2.640382813E0,6.806783844E-3,1.867502346E-3,-2.317797206E-2
2.645345313E0,4.639085010E-2,-5.131267942E-3,-1.261349469E-1
2.650307813E0,4.639085010E-2,-5.131267942E-3,-1.261349469E-1
2.655271875E0,5.396557972E-2,-2.499311417E-2,-1.173908487E-1
2.660234375E0,5.396557972E-2,-2.499311417E-2,-1.173908487E-1
2.665198438E0,5.455899239E-2,-3.567453101E-2,-1.046150327E-1
2.670160938E0,5.455899239E-2,-3.567453101E-2,-1.046150327E-1
2.675123438E0,4.904375225E-2,-3.639011458E-2,-9.112364054E-2
2.680087500E0,4.904375225E-2,-3.639011458E-2,-9.112364054E-2
2.685050000E0,3.956661373E-2,-3.995058686E-2,-8.288568258E-2
2.690014063E0,3.956661373E-2,-3.995058686E-2,-8.288568258E-2
2.694976563E0,3.078760765E-2,-7.368779927E-2,-7.073819637E-2
2.699940625E0,3.078760765E-2,-7.368779927E-2,-7.073819637E-2
2.704903125E0,2.192133479E-2,-9.545205534E-2,-5.063199997E-2
2.709867188E0,2.192133479E-2,-9.545205534E-2,-5.063199997E-2
2.714829688E0,1.638864167E-2,-1.068141535E-1,-3.099704720E-2
2.719792188E0,1.638864167E-2,-1.068141535E-1,-3.099704720E-2
2.724756250E0,1.300270297E-2,-1.126784533E-1,-2.061233856E-2
2.729718750E0,1.300270297E-2,-1.126784533E-1,-2.061233856E-2
2.734682813E0,6.370451767E-3,-1.103048101E-1,-2.127556317E-2
2.739645313E0,6.370451767E-3,-1.103048101E-1,-2.127556317E-2
2.744607813E0,5.044001620E-3,-9.669124335E-2,-2.659881860E-2
2.749571875E0,5.044001620E-3,-9.669124335E-2,-2.659881860E-2
2.754534375E0,6.981316954E-3,-8.758062124E-2,-3.216641769E-2
2.759498438E0,6.981316954E-3,-8.758062124E-2,-3.216641769E-2
2.764460938E0,9.669124149E-3,-7.080800831E-2,-3.111921996E-2
2.769425000E0,9.669124149E-3,-7.080800831E-2,-3.111921996E-2
2.774387500E0,1.345648803E-2,-6.325073540E-2,-3.049090132E-2
2.779350000E0,1.345648803E-2,-6.325073540E-2,-3.049090132E-2
2.784314063E0,1.563815027E-2,-5.300565064E-2,-3.412118554E-2
2.789276563E0,1.563815027E-2,-5.300565064E-2,-3.412118554E-2
2.794240625E0,1.523672417E-2,-4.291764647E-2,-3.436553106E-2
2.799203125E0,1.523672417E-2,-4.291764647E-2,-3.436553106E-2
2.804167188E0,1.370083448E-2,-4.188790172E-2,-2.879793197E-2
2.809129688E0,1.370083448E-2,-4.188790172E-2,-2.879793197E-2
2.814092188E0,1.104793418E-2,-4.022983834E-2,-1.951278187E-2
2.819056250E0,1.104793418E-2,-4.022983834E-2,-1.951278187E-2
2.824018750E0,3.543018363E-3,-2.975786291E-2,-9.494591504E-3
2.828982813E0,3.543018363E-3,-2.975786291E-2,-9.494591504E-3
2.833945313E0,-9.389871731E-3,-2.036799304E-2,-5.218534265E-3
2.838909375E0,-9.389871731E-3,-2.036799304E-2,-5.218534265E-3
2.843871875E0,-2.319542505E-2,-1.581268385E-2,2.740166849E-3
2.848834375E0,-2.319542505E-2,-1.581268385E-2,2.740166849E-3
2.853798438E0,-3.040363453E-2,-3.652974218E-2,1.982693933E-2
2.858760938E0,-3.040363453E-2,-3.652974218E-2,1.982693933E-2
2.863725000E0,-2.834414691E-2,-7.932521403E-2,3.890338913E-2
2.868687500E0,-2.834414691E-2,-7.932521403E-2,3.890338913E-2
2.873651563E0,-2.289872058E-2,-9.695304185E-2,5.389576778E-2
2.878614063E0,-2.289872058E-2,-9.695304185E-2,5.389576778E-2
2.883576563E0,-1.834340952E-2,-9.972811490E-2,5.742133036E-2
2.888540625E0,-1.834340952E-2,-9.972811490E-2,5.742133036E-2
2.893503125E0,-1.541125681E-2,-1.062730998E-1,5.400048569E-2
2.898467188E0,-1.541125681E-2,-1.062730998E-1,5.400048569E-2
2.903429688E0,-1.331686229E-2,-1.182809621E-1,4.597197101E-2
2.908393750E0,-1.331686229E-2,-1.182809621E-1,4.597197101E-2
2.913356250E0,-9.948376566E-3,-1.220857799E-1,3.801327199E-2
2.918318750E0,-9.948376566E-3,-1.220857799E-1,3.801327199E-2
2.923282813E0,-7.417649496E-3,-1.203928143E-1,3.246312216E-2
2.928245313E0,-7.417649496E-3,-1.203928143E-1,3.246312216E-2
2.933209375E0,-7.016223390E-3,-1.093099713E-1,3.125884756E-2
2.938171875E0,-7.016223390E-3,-1.093099713E-1,3.125884756E-2
2.943135938E0,-1.123992074E-2,-8.663814515E-2,3.454006463E-2
2.948098438E0,-1.123992074E-2,-8.663814515E-2,3.454006463E-2
2.953060938E0,-1.556833647E-2,-6.551966071E-2,3.832742944E-2
2.958025000E0,-1.556833647E-2,-6.551966071E-2,3.832742944E-2
2.962987500E0,-1.740093343E-2,-4.673991725E-2,3.984586522E-2
2.967950000E0,-1.740093343E-2,-4.673991725E-2,3.984586522E-2
2.972914063E0,-1.715658605E-2,-3.434807807E-2,3.830997646E-2
2.977876563E0,-1.715658605E-2,-3.434807807E-2,3.830997646E-2
2.982840625E0,-2.661627159E-2,-6.283185445E-3,3.771656379E-2
2.987803125E0,-2.661627159E-2,-6.283185445E-3,3.771656379E-2
2.992767188E0,-3.794345632E-2,2.026327327E-2,3.515093029E-2
2.997729688E0,-3.794345632E-2,2.026327327E-2,3.515093029E-2
3.002692188E0,-3.775146976E-2,2.563888580E-2,3.012438305E-2
3.007656250E0,-3.775146976E-2,2.563888580E-2,3.012438305E-2
3.012618750E0,-2.588323317E-2,1.396263391E-2,2.459168993E-2
3.017582813E0,-2.588323317E-2,1.396263391E-2,2.459168993E-2
3.022545313E0,-1.490511186E-2,6.352998316E-3,1.776745170E-2
3.027509375E0,-1.490511186E-2,6.352998316E-3,1.776745170E-2
3.032471875E0,-8.813912980E-3,3.281218931E-3,1.233947743E-2
3.037434375E0,-8.813912980E-3,3.281218931E-3,1.233947743E-2
3.042398438E0,-7.958701812E-3,9.320057929E-3,1.275835652E-2
3.047360938E0,-7.958701812E-3,9.320057929E-3,1.275835652E-2
3.052325000E0,-5.550147034E-3,8.848818950E-3,1.509709843E-2
3.057287500E0,-5.550147034E-3,8.848818950E-3,1.509709843E-2
3.062251563E0,-7.801621687E-3,1.841322333E-2,2.049016580E-2
3.067214063E0,-7.801621687E-3,1.841322333E-2,2.049016580E-2
3.072176563E0,-1.487020496E-2,3.710569814E-2,2.392846346E-2
3.077140625E0,-1.487020496E-2,3.710569814E-2,2.392846346E-2
3.082103125E0,-2.239257470E-2,4.665265232E-2,2.595304511E-2
3.087067188E0,-2.239257470E-2,4.665265232E-2,2.595304511E-2
3.092029688E0,-2.506292798E-2,4.160865024E-2,2.909463830E-2
3.096992188E0,-2.506292798E-2,4.160865024E-2,2.909463830E-2
3.101954688E0,-2.495820820E-2,4.269075394E-2,2.801253460E-2
3.106918750E0,-2.495820820E-2,4.269075394E-2,2.801253460E-2
3.111882813E0,-2.494075522E-2,3.965387866E-2,2.078687213E-2
3.116845313E0,-2.494075522E-2,3.965387866E-2,2.078687213E-2
3.121809375E0,-1.865756884E-2,4.387757555E-2,1.446877979E-2
3.126771875E0,-1.865756884E-2,4.387757555E-2,1.446877979E-2
3.131734375E0,-7.574729156E-3,3.738495335E-2,1.263618376E-2
3.136698438E0,-7.574729156E-3,3.738495335E-2,1.263618376E-2
3.141660938E0,2.373647876E-3,4.298745841E-2,-1.797689125E-3
3.146623438E0,2.373647876E-3,4.298745841E-2,-1.797689125E-3
3.151587500E0,5.393067375E-3,7.019714266E-2,-2.965314314E-2
3.156551563E0,5.393067375E-3,7.019714266E-2,-2.965314314E-2
3.161514063E0,1.103048120E-2,7.965682447E-2,-6.602580845E-2
3.166478125E0,1.103048120E-2,7.965682447E-2,-6.602580845E-2
3.171440625E0,2.563888580E-2,8.052948862E-2,-9.559167922E-2
3.176404688E0,2.563888580E-2,8.052948862E-2,-9.559167922E-2
3.181367188E0,4.105014354E-2,6.161012128E-2,-1.056447774E-1
3.186329688E0,4.105014354E-2,6.161012128E-2,-1.056447774E-1
3.191293750E0,4.356341809E-2,4.618141055E-2,-9.583602846E-2
3.196256250E0,4.356341809E-2,4.618141055E-2,-9.583602846E-2
3.201220313E0,3.272492439E-2,6.440264732E-2,-7.757988572E-2
3.206182813E0,3.272492439E-2,6.440264732E-2,-7.757988572E-2
3.211146875E0,2.185152285E-2,7.614871860E-2,-6.227334589E-2
3.216109375E0,2.185152285E-2,7.614871860E-2,-6.227334589E-2
3.221071875E0,1.500983164E-2,8.871508390E-2,-5.063199997E-2
3.226034375E0,1.500983164E-2,8.871508390E-2,-5.063199997E-2
3.230998438E0,1.246165112E-2,1.026253626E-1,-4.134684801E-2
3.235960938E0,1.246165112E-2,1.026253626E-1,-4.134684801E-2
3.240923438E0,4.939281847E-3,1.273217648E-1,-2.773328125E-2
3.245887500E0,4.939281847E-3,1.273217648E-1,-2.773328125E-2
3.250851563E0,-1.919862116E-4,1.271297783E-1,-1.624901593E-2
3.255814063E0,-1.919862116E-4,1.271297783E-1,-1.624901593E-2
3.260778125E0,3.647738136E-3,1.027649865E-1,-1.158898603E-2
3.265740625E0,3.647738136E-3,1.027649865E-1,-1.158898603E-2
3.270703125E0,1.253146399E-2,5.312782153E-2,-1.584758982E-2
3.275665625E0,1.253146399E-2,5.312782153E-2,-1.584758982E-2
3.280629688E0,1.630137488E-2,2.352703735E-2,-1.902408898E-2
3.285593750E0,1.630137488E-2,2.352703735E-2,-1.902408898E-2
3.290556250E0,1.766273193E-2,9.197885171E-3,-2.055997774E-2
3.295518750E0,1.766273193E-2,9.197885171E-3,-2.055997774E-2
3.300481250E0,2.755874954E-2,-1.047197543E-2,-2.246238664E-2
3.305445313E0,2.755874954E-2,-1.047197543E-2,-2.246238664E-2
3.310407813E0,3.960151970E-2,-3.272492439E-2,-2.330014482E-2
3.315371875E0,3.960151970E-2,-3.272492439E-2,-2.330014482E-2
3.320334375E0,4.569271952E-2,-4.070107639E-2,-2.125811018E-2
3.325296875E0,4.569271952E-2,-4.070107639E-2,-2.125811018E-2
3.330260938E0,3.939208016E-2,-2.841396071E-2,-1.638864167E-2
3.335225000E0,3.939208016E-2,-2.841396071E-2,-1.638864167E-2
3.340187500E0,3.028146178E-2,-1.300270297E-2,-1.090830751E-2
3.345151563E0,3.028146178E-2,-1.300270297E-2,-1.090830751E-2
3.350114063E0,2.136282995E-2,-2.792526793E-4,-5.044001620E-3
3.355078125E0,2.136282995E-2,-2.792526793E-4,-5.044001620E-3
3.360039063E0,1.633628085E-2,1.382300723E-2,-1.221730490E-4
3.365003125E0,1.633628085E-2,1.382300723E-2,-1.221730490E-4
3.369965625E0,1.431170013E-2,2.747148275E-2,2.164208330E-3
3.374929688E0,1.431170013E-2,2.747148275E-2,2.164208330E-3
3.379892188E0,1.078613475E-2,4.279547185E-2,2.426007763E-3
3.384856250E0,1.078613475E-2,4.279547185E-2,2.426007763E-3
3.389820313E0,6.719517522E-3,6.656685472E-2,3.124139272E-3
3.394782813E0,6.719517522E-3,6.656685472E-2,3.124139272E-3
3.399745313E0,2.426007763E-3,9.037315100E-2,5.218534265E-3
3.404709375E0,2.426007763E-3,9.037315100E-2,5.218534265E-3
3.409671875E0,-2.617993741E-4,1.146157682E-1,8.883725852E-3
3.414635938E0,-2.617993741E-4,1.146157682E-1,8.883725852E-3
3.419598438E0,1.762782573E-3,1.023635566E-1,5.916666240E-3
3.424562500E0,1.762782573E-3,1.023635566E-1,5.916666240E-3
3.429525000E0,4.555309191E-3,9.560913593E-2,5.253441166E-3
3.434489063E0,4.555309191E-3,9.560913593E-2,5.253441166E-3
3.439451563E0,5.218534265E-3,9.192649275E-2,7.696901914E-3
3.444414063E0,5.218534265E-3,9.192649275E-2,7.696901914E-3
3.449378125E0,4.642575979E-3,9.032078832E-2,1.085594762E-2
3.454340625E0,4.642575979E-3,9.032078832E-2,1.085594762E-2
3.459303125E0,3.735004691E-3,9.344492853E-2,1.240929123E-2
3.464267188E0,3.735004691E-3,9.344492853E-2,1.240929123E-2
3.469229688E0,2.722713631E-3,8.843583614E-2,2.272418700E-2
3.474192188E0,2.722713631E-3,8.843583614E-2,2.272418700E-2
3.479156250E0,2.007128671E-3,8.236208558E-2,4.408701509E-2
3.484118750E0,2.007128671E-3,8.236208558E-2,4.408701509E-2
3.489081250E0,1.553343027E-3,5.550146848E-2,6.482152641E-2
3.494045313E0,1.553343027E-3,5.550146848E-2,6.482152641E-2
3.499007813E0,1.029744279E-3,4.185299575E-2,7.532840967E-2
3.503971875E0,1.029744279E-3,4.185299575E-2,7.532840967E-2
3.508934375E0,5.061454722E-4,3.890338913E-2,7.171557844E-2
3.513898438E0,5.061454722E-4,3.890338913E-2,7.171557844E-2
3.518860938E0,-3.490658419E-4,4.063126445E-2,6.124360487E-2
3.523825000E0,-3.490658419E-4,4.063126445E-2,6.124360487E-2
3.528787500E0,1.745329209E-4,4.553563893E-2,5.056218803E-2
3.533751563E0,1.745329209E-4,4.553563893E-2,5.056218803E-2
3.538714063E0,6.614797749E-3,3.523819894E-2,3.918264061E-2
3.543676563E0,6.614797749E-3,3.523819894E-2,3.918264061E-2
3.548640625E0,2.138028294E-2,5.672320258E-3,2.675589733E-2
3.553603125E0,2.138028294E-2,5.672320258E-3,2.675589733E-2
3.558567188E0,3.991568089E-2,-3.019419685E-2,1.774999872E-2
3.563531250E0,3.991568089E-2,-3.019419685E-2,1.774999872E-2
3.568492188E0,5.431464687E-2,-5.206317082E-2,8.848818950E-3
3.573456250E0,5.431464687E-2,-5.206317082E-2,8.848818950E-3
3.578418750E0,5.708971992E-2,-4.722860828E-2,-3.019419499E-3
3.583382813E0,5.708971992E-2,-4.722860828E-2,-3.019419499E-3
3.588345313E0,5.016076192E-2,-1.108284108E-2,-1.153662615E-2
3.593307813E0,5.016076192E-2,-1.108284108E-2,-1.153662615E-2
3.598271875E0,4.070107639E-2,3.604104742E-2,-1.424188633E-2
3.603234375E0,4.070107639E-2,3.604104742E-2,-1.424188633E-2
3.608198438E0,3.481931984E-2,5.860815570E-2,-1.788962446E-2
3.613160938E0,3.481931984E-2,5.860815570E-2,-1.788962446E-2
3.618125000E0,3.094468825E-2,7.262314856E-2,-2.330014482E-2
3.623087500E0,3.094468825E-2,7.262314856E-2,-2.330014482E-2
3.628050000E0,2.782054804E-2,7.942993194E-2,-2.956587821E-2
3.633014063E0,2.782054804E-2,7.942993194E-2,-2.956587821E-2
3.637976563E0,2.577851340E-2,8.073893189E-2,-3.544763848E-2
3.642940625E0,2.577851340E-2,8.073893189E-2,-3.544763848E-2
3.647903125E0,2.398082428E-2,9.538224339E-2,-3.701843321E-2
3.652867188E0,2.398082428E-2,9.538224339E-2,-3.701843321E-2
3.657829688E0,4.398229532E-3,1.841322333E-2,-7.627088577E-3
3.662793750E0,4.398229532E-3,1.841322333E-2,-7.627088577E-3
3.667756250E0,4.502949305E-3,1.939060725E-2,-8.447393775E-3
3.672718750E0,4.502949305E-3,1.939060725E-2,-8.447393775E-3
3.677682813E0,4.590216093E-3,1.932079531E-2,-9.005898610E-3
3.682645313E0,4.590216093E-3,1.932079531E-2,-9.005898610E-3
3.687609375E0,4.625122529E-3,1.982693933E-2,-9.337511845E-3
3.692573438E0,4.625122529E-3,1.982693933E-2,-9.337511845E-3
3.697535938E0,2.481858246E-2,9.807004780E-2,-4.998622835E-2
3.702498438E0,2.481858246E-2,9.807004780E-2,-4.998622835E-2
3.707462500E0,2.630211227E-2,8.541641384E-2,-4.626867920E-2
3.712425000E0,2.630211227E-2,8.541641384E-2,-4.626867920E-2
3.717387500E0,3.117158078E-2,5.181882530E-2,-4.455825686E-2
3.722350000E0,3.117158078E-2,5.181882530E-2,-4.455825686E-2
3.727314063E0,6.963863503E-3,1.047197584E-4,-8.604473434E-3
3.732278125E0,6.963863503E-3,1.047197584E-4,-8.604473434E-3
3.737240625E0,3.553490341E-2,-2.253220044E-2,-4.515166581E-2
3.742204688E0,3.553490341E-2,-2.253220044E-2,-4.515166581E-2
3.747167188E0,2.878047898E-2,-2.256710641E-2,-4.003785178E-2
3.752129688E0,2.878047898E-2,-2.256710641E-2,-4.003785178E-2
3.757092188E0,2.237512171E-2,-2.115339041E-2,-3.207915276E-2
3.762057813E0,2.237512171E-2,-2.115339041E-2,-3.207915276E-2
3.767018750E0,1.804670505E-2,-2.225294709E-2,-2.350958437E-2
3.771982813E0,1.804670505E-2,-2.225294709E-2,-2.350958437E-2
3.776945313E0,1.520181727E-2,-7.836528122E-3,-1.691224054E-2
3.781909375E0,1.520181727E-2,-7.836528122E-3,-1.691224054E-2
3.786871875E0,1.139700040E-2,-1.570796361E-3,-1.589994878E-2
3.791834375E0,1.139700040E-2,-1.570796361E-3,-1.589994878E-2
3.796798438E0,4.206243437E-3,1.417207345E-2,-1.764527895E-2
3.801760938E0,4.206243437E-3,1.417207345E-2,-1.764527895E-2
3.806725000E0,-3.438298590E-3,2.912954427E-2,-1.919862255E-2
3.811687500E0,-3.438298590E-3,2.912954427E-2,-1.919862255E-2
3.816651563E0,-5.009094719E-3,3.850196302E-2,-1.802925020E-2
3.821614063E0,-5.009094719E-3,3.850196302E-2,-1.802925020E-2
3.826576563E0,-1.780235791E-3,5.124286562E-2,-1.469567232E-2
3.831540625E0,-1.780235791E-3,5.124286562E-2,-1.469567232E-2
3.836503125E0,2.635447076E-3,5.108578876E-2,-1.734857261E-2
3.841467188E0,2.635447076E-3,5.108578876E-2,-1.734857261E-2
3.846429688E0,5.113814492E-3,6.764896214E-2,-1.911135577E-2
3.851392188E0,5.113814492E-3,6.764896214E-2,-1.911135577E-2
3.856356250E0,5.340707488E-3,8.435176313E-2,-1.539380383E-2
3.861318750E0,5.340707488E-3,8.435176313E-2,-1.539380383E-2
3.866282813E0,5.201081280E-3,8.232717961E-2,-9.599311277E-3
3.871245313E0,5.201081280E-3,8.232717961E-2,-9.599311277E-3
3.876209375E0,4.939281847E-3,6.675884128E-2,-5.358160939E-3
3.881171875E0,4.939281847E-3,6.675884128E-2,-5.358160939E-3
3.886135938E0,3.316125600E-3,6.082472578E-2,-1.762782573E-3
3.891098438E0,3.316125600E-3,6.082472578E-2,-1.762782573E-3
3.896062500E0,2.792526793E-4,6.363470107E-2,1.204277156E-3
3.901025000E0,2.792526793E-4,6.363470107E-2,1.204277156E-3
3.905987500E0,-3.071779385E-3,6.047565863E-2,1.289798319E-2
3.910951563E0,-3.071779385E-3,6.047565863E-2,1.289798319E-2
3.915914063E0,-4.817108624E-3,4.988151044E-2,3.176499158E-2
3.920878125E0,-4.817108624E-3,4.988151044E-2,3.176499158E-2
3.925840625E0,-4.729842301E-3,3.122393973E-2,5.211552978E-2
3.930803125E0,-4.729842301E-3,3.122393973E-2,5.211552978E-2
3.935767188E0,-2.164208330E-3,1.947787404E-2,6.442010403E-2
3.940729688E0,-2.164208330E-3,1.947787404E-2,6.442010403E-2
3.945693750E0,8.901178953E-4,6.981316954E-3,6.785839796E-2
3.950656250E0,8.901178953E-4,6.981316954E-3,6.785839796E-2
3.955618750E0,1.256637042E-3,5.811946467E-3,6.524040550E-2
3.960582813E0,1.256637042E-3,5.811946467E-3,6.524040550E-2
3.965545313E0,2.635447076E-3,3.490658477E-3,5.998696759E-2
3.970509375E0,2.635447076E-3,3.490658477E-3,5.998696759E-2
3.975471875E0,1.021017600E-2,3.368485486E-3,5.361651629E-2
3.980435938E0,1.021017600E-2,3.368485486E-3,5.361651629E-2
3.985398438E0,2.319542505E-2,-5.724680144E-3,4.691445082E-2
3.990360938E0,2.319542505E-2,-5.724680144E-3,4.691445082E-2
3.995325000E0,3.576179594E-2,-1.167625282E-2,4.204498231E-2
4.000287500E0,3.576179594E-2,-1.167625282E-2,4.204498231E-2
4.005251563E0,4.007275775E-2,-2.092649788E-2,3.810053691E-2
4.010214063E0,4.007275775E-2,-2.092649788E-2,3.810053691E-2
4.015178125E0,3.312635049E-2,8.604473434E-3,4.031710699E-2
4.020140625E0,3.312635049E-2,8.604473434E-3,4.031710699E-2
4.025103125E0,2.323033288E-2,2.017600648E-2,4.099778458E-2
4.030067188E0,2.323033288E-2,2.017600648E-2,4.099778458E-2
4.035029688E0,1.595230959E-2,2.820452116E-2,4.293509945E-2
4.039993750E0,1.595230959E-2,2.820452116E-2,4.293509945E-2
4.044956250E0,1.267109066E-2,2.764601447E-2,4.382521659E-2
4.049920313E0,1.267109066E-2,2.764601447E-2,4.382521659E-2
4.054882813E0,1.043706853E-2,3.572688997E-2,4.406956211E-2
4.059846875E0,1.043706853E-2,3.572688997E-2,4.406956211E-2
4.064809375E0,7.033676840E-3,4.928809777E-2,4.258603230E-2
4.069771875E0,7.033676840E-3,4.928809777E-2,4.258603230E-2
4.074735938E0,3.368485486E-3,6.380923837E-2,4.070107639E-2
4.079698438E0,3.368485486E-3,6.380923837E-2,4.070107639E-2
4.084660938E0,3.525565146E-3,6.724753231E-2,3.705333918E-2
4.089625000E0,3.525565146E-3,6.724753231E-2,3.705333918E-2
4.094587500E0,6.754423957E-3,6.167993695E-2,3.305653483E-2
4.099551563E0,6.754423957E-3,6.167993695E-2,3.305653483E-2
4.104514063E0,9.704031050E-3,5.450663343E-2,3.021164984E-2
4.109478125E0,9.704031050E-3,5.450663343E-2,3.021164984E-2
4.114440625E0,9.843656793E-3,4.738568887E-2,2.858849242E-2
4.119404688E0,9.843656793E-3,4.738568887E-2,2.858849242E-2
4.124367188E0,1.230457146E-2,3.403392062E-2,2.764601447E-2
4.129329688E0,1.230457146E-2,3.403392062E-2,2.764601447E-2
4.134293750E0,2.202605456E-2,4.468042869E-3,2.645919099E-2
4.139256250E0,2.202605456E-2,4.468042869E-3,2.645919099E-2
4.144220313E0,3.282964230E-2,-2.958333120E-2,2.864085324E-2
4.149182813E0,3.282964230E-2,-2.958333120E-2,2.864085324E-2
4.154145313E0,3.776892647E-2,-4.459316283E-2,4.002039880E-2
4.159109375E0,3.776892647E-2,-4.459316283E-2,4.002039880E-2
4.164071875E0,3.448770568E-2,-6.841690838E-2,6.045820564E-2
4.169035938E0,3.448770568E-2,-6.841690838E-2,6.045820564E-2
4.173998438E0,3.012438305E-2,-9.070476145E-2,7.892379165E-2
4.178962500E0,3.012438305E-2,-9.070476145E-2,7.892379165E-2
4.183925000E0,3.001966327E-2,-9.712757170E-2,9.021607041E-2
4.188889063E0,3.001966327E-2,-9.712757170E-2,9.021607041E-2
4.193851563E0,3.145083413E-2,-9.637708217E-2,9.290387481E-2
4.198814063E0,3.145083413E-2,-9.637708217E-2,9.290387481E-2
4.203778125E0,3.434807807E-2,-1.018399596E-1,8.689994365E-2
4.208740625E0,3.434807807E-2,-1.018399596E-1,8.689994365E-2
4.213704688E0,3.577924892E-2,-9.478883445E-2,7.613126189E-2
4.218667188E0,3.577924892E-2,-9.478883445E-2,7.613126189E-2
4.223629688E0,3.455751762E-2,-7.672467083E-2,6.595598906E-2
4.228593750E0,3.455751762E-2,-7.672467083E-2,6.595598906E-2
4.233556250E0,3.050835431E-2,-5.417501926E-2,5.845107511E-2
4.238520313E0,3.050835431E-2,-5.417501926E-2,5.845107511E-2
4.243482813E0,2.597049996E-2,-2.982767671E-2,5.359905958E-2
4.248446875E0,2.597049996E-2,-2.982767671E-2,5.359905958E-2
4.253409375E0,2.113593742E-2,-2.593559213E-2,4.775220901E-2
4.258373438E0,2.113593742E-2,-2.593559213E-2,4.775220901E-2
4.263335938E0,1.677261479E-2,-1.651081443E-2,4.078834504E-2
4.268298438E0,1.677261479E-2,-1.651081443E-2,4.078834504E-2
4.273262500E0,1.504473854E-2,-1.087340154E-2,3.319616243E-2
4.278225000E0,1.504473854E-2,-1.087340154E-2,3.319616243E-2
4.283189063E0,8.796459064E-3,-1.588249579E-3,2.630211227E-2
4.288151563E0,8.796459064E-3,-1.588249579E-3,2.630211227E-2
4.293115625E0,-1.174606569E-2,3.228859231E-2,2.645919099E-2
4.298078125E0,-1.174606569E-2,3.228859231E-2,2.645919099E-2
4.303040625E0,-3.965387866E-2,8.169886470E-2,2.988003753E-2
4.308004688E0,-3.965387866E-2,8.169886470E-2,2.988003753E-2
4.312967188E0,-5.873033032E-2,1.047023013E-1,3.124139272E-2
4.317929688E0,-5.873033032E-2,1.047023013E-1,3.124139272E-2
4.322893750E0,-6.375687569E-2,1.014734432E-1,2.968805097E-2
4.327856250E0,-6.375687569E-2,1.014734432E-1,2.968805097E-2
4.332820313E0,-5.494296551E-2,8.585274220E-2,2.604031190E-2
4.337782813E0,-5.494296551E-2,8.585274220E-2,2.604031190E-2
4.342746875E0,-4.223696887E-2,7.312929630E-2,2.420771681E-2
4.347709375E0,-4.223696887E-2,7.312929630E-2,2.420771681E-2
4.352673438E0,-3.211405873E-2,5.874778330E-2,2.408554405E-2
4.357635938E0,-3.211405873E-2,5.874778330E-2,2.408554405E-2
4.362598438E0,-2.640683204E-2,3.843215108E-2,2.495820820E-2
4.367562500E0,-2.640683204E-2,3.843215108E-2,2.495820820E-2
4.372525000E0,-2.288126573E-2,2.162462845E-2,2.727949619E-2
4.377489063E0,-2.288126573E-2,2.162462845E-2,2.727949619E-2
4.382451563E0,-1.621410809E-2,-1.727875904E-3,2.984512970E-2
4.387415625E0,-1.621410809E-2,-1.727875904E-3,2.984512970E-2
4.392378125E0,-5.759586580E-3,-3.467969224E-2,3.096214123E-2
4.397342188E0,-5.759586580E-3,-3.467969224E-2,3.096214123E-2
4.402304688E0,3.473205259E-3,-5.139994621E-2,3.363249451E-2
4.407267188E0,3.473205259E-3,-5.139994621E-2,3.363249451E-2
4.412231250E0,3.909537569E-3,-5.122541264E-2,3.626793995E-2
4.417193750E0,3.909537569E-3,-5.122541264E-2,3.626793995E-2
4.422157813E0,-3.316125658E-4,-4.281292483E-2,3.574434295E-2
4.427120313E0,-3.316125658E-4,-4.281292483E-2,3.574434295E-2
4.432084375E0,-2.652900526E-3,-3.609341010E-2,3.246312216E-2
4.437046875E0,-2.652900526E-3,-3.609341010E-2,3.246312216E-2
4.442009375E0,-2.007128671E-3,-2.368411794E-2,2.713987045E-2
4.446973438E0,-2.007128671E-3,-2.368411794E-2,2.713987045E-2
4.451935938E0,-5.951572675E-3,-6.143558770E-3,2.138028294E-2
4.456900000E0,-5.951572675E-3,-6.143558770E-3,2.138028294E-2
4.461862500E0,-1.502728462E-2,2.911209129E-2,2.165953629E-2
4.466825000E0,-1.502728462E-2,2.911209129E-2,2.165953629E-2
4.471789063E0,-2.377138473E-2,5.309291556E-2,2.118829638E-2
4.476751563E0,-2.377138473E-2,5.309291556E-2,2.118829638E-2
4.481715625E0,-2.822197415E-2,7.641051710E-2,1.186823845E-2
4.486678125E0,-2.822197415E-2,7.641051710E-2,1.186823845E-2
4.491640625E0,-2.975786291E-2,9.426523000E-2,-8.237954229E-3
4.496604688E0,-2.975786291E-2,9.426523000E-2,-8.237954229E-3
4.501567188E0,-2.897246554E-2,1.106887832E-1,-2.874557301E-2
4.506531250E0,-2.897246554E-2,1.106887832E-1,-2.874557301E-2
4.511493750E0,-5.410520826E-3,2.354449220E-2,-8.080874570E-3
4.516457813E0,-5.410520826E-3,2.354449220E-2,-8.080874570E-3
4.521420313E0,-5.794493016E-3,2.652900480E-2,-9.477137588E-3
4.526382813E0,-5.794493016E-3,2.652900480E-2,-9.477137588E-3
4.531346875E0,-6.248278543E-3,2.846631967E-2,-9.704031050E-3
4.536309375E0,-6.248278543E-3,2.846631967E-2,-9.704031050E-3
4.541273438E0,-6.806783844E-3,3.077015467E-2,-9.477137588E-3
4.546235938E0,-6.806783844E-3,3.077015467E-2,-9.477137588E-3
4.551200000E0,-7.539822254E-3,3.265510872E-2,-9.512044489E-3
4.556162500E0,-7.539822254E-3,3.265510872E-2,-9.512044489E-3
4.561125000E0,-4.064871743E-2,1.796990931E-1,-5.258677155E-2
4.566089063E0,-4.064871743E-2,1.796990931E-1,-5.258677155E-2
4.571051563E0,-3.563962504E-2,1.719498336E-1,-5.368632823E-2
4.576015625E0,-3.563962504E-2,1.719498336E-1,-5.368632823E-2
4.580978125E0,-2.773328125E-2,1.592961997E-1,-5.619960278E-2
4.585940625E0,-2.773328125E-2,1.592961997E-1,-5.619960278E-2
4.590904688E0,-2.024581842E-2,1.423141509E-1,-5.733406544E-2
4.595867188E0,-2.024581842E-2,1.423141509E-1,-5.733406544E-2
4.600831250E0,-1.638864167E-2,1.291194558E-1,-5.761331692E-2
4.605793750E0,-1.638864167E-2,1.291194558E-1,-5.761331692E-2
4.610756250E0,-7.853982039E-3,1.138303727E-1,-5.382595211E-2
4.615720313E0,-7.853982039E-3,1.138303727E-1,-5.382595211E-2
4.620684375E0,1.307251584E-2,7.192502171E-2,-4.970697686E-2
4.625646875E0,1.307251584E-2,7.192502171E-2,-4.970697686E-2
4.630609375E0,3.097959422E-2,4.356341809E-2,-4.239404574E-2
4.635573438E0,3.097959422E-2,4.356341809E-2,-4.239404574E-2
4.640535938E0,2.886774577E-2,4.644321278E-2,-3.401646763E-2
4.645500000E0,2.886774577E-2,4.644321278E-2,-3.401646763E-2
4.650462500E0,1.485275198E-2,6.424556673E-2,-2.340486459E-2
4.655426563E0,1.485275198E-2,6.424556673E-2,-2.340486459E-2
4.660389063E0,1.483529806E-3,7.663740963E-2,-2.809980186E-3
4.665351563E0,1.483529806E-3,7.663740963E-2,-2.809980186E-3
4.670315625E0,-6.597344764E-3,7.154104859E-2,2.080432512E-2
4.675278125E0,-6.597344764E-3,7.154104859E-2,2.080432512E-2
4.680242188E0,-9.494591504E-3,6.717772037E-2,4.111995548E-2
4.685204688E0,-9.494591504E-3,6.717772037E-2,4.111995548E-2
4.690168750E0,-9.930923581E-3,7.138396800E-2,5.209807679E-2
4.695131250E0,-9.930923581E-3,7.138396800E-2,5.209807679E-2
4.700093750E0,-1.520181727E-2,9.114108980E-2,5.445427075E-2
4.705057813E0,-1.520181727E-2,9.114108980E-2,5.445427075E-2
4.710020313E0,-2.349213138E-2,1.322086900E-1,5.276130140E-2
4.714984375E0,-2.349213138E-2,1.322086900E-1,5.276130140E-2
4.719946875E0,-2.740166895E-2,1.463284045E-1,4.736823589E-2
4.724910938E0,-2.740166895E-2,1.463284045E-1,4.736823589E-2
4.729873438E0,-2.574360557E-2,1.469916254E-1,4.244640842E-2
4.734835938E0,-2.574360557E-2,1.469916254E-1,4.244640842E-2
4.739800000E0,-2.131047100E-2,1.582664549E-1,4.098033160E-2
4.744762500E0,-2.131047100E-2,1.582664549E-1,4.098033160E-2
4.749726563E0,-1.877974346E-2,1.542870998E-1,3.689625859E-2
4.754689063E0,-1.877974346E-2,1.542870998E-1,3.689625859E-2
4.759653125E0,-1.808161102E-2,1.411447823E-1,3.045599535E-2
4.764614063E0,-1.808161102E-2,1.411447823E-1,3.045599535E-2
4.769578125E0,-1.830850355E-2,1.381951720E-1,2.560397983E-2
4.774540625E0,-1.830850355E-2,1.381951720E-1,2.560397983E-2
4.779504688E0,-1.872738265E-2,1.123642996E-1,2.192133479E-2
4.784468750E0,-1.872738265E-2,1.123642996E-1,2.192133479E-2
4.789431250E0,-2.071705833E-2,9.923942387E-2,2.131047100E-2
4.794393750E0,-2.071705833E-2,9.923942387E-2,2.131047100E-2
4.799357813E0,-2.541199327E-2,9.466665983E-2,2.172934823E-2
4.804320313E0,-2.541199327E-2,9.466665983E-2,2.172934823E-2
4.809284375E0,-3.049090132E-2,8.616690338E-2,2.059488557E-2
4.814246875E0,-3.049090132E-2,8.616690338E-2,2.059488557E-2
4.819209375E0,-3.666936606E-2,7.421139628E-2,1.830850355E-2
4.824171875E0,-3.666936606E-2,7.421139628E-2,1.830850355E-2
4.829135938E0,-3.869394958E-2,5.494296551E-2,1.530653704E-2
4.834100000E0,-3.869394958E-2,5.494296551E-2,1.530653704E-2
4.839062500E0,-3.913028166E-2,5.777039751E-2,1.558579039E-2
4.844025000E0,-3.913028166E-2,5.777039751E-2,1.558579039E-2
4.848987500E0,-3.827507049E-2,5.485569686E-2,1.425934024E-2
4.853951563E0,-3.827507049E-2,5.485569686E-2,1.425934024E-2
4.858915625E0,-3.426081315E-2,4.583234712E-2,1.219985168E-2
4.863878125E0,-3.426081315E-2,4.583234712E-2,1.219985168E-2
4.868842188E0,-2.832669392E-2,3.562216833E-2,1.106538717E-2
4.873803125E0,-2.832669392E-2,3.562216833E-2,1.106538717E-2
4.878767188E0,-2.335250564E-2,2.645919099E-2,1.329940930E-2
4.883731250E0,-2.335250564E-2,2.645919099E-2,1.329940930E-2
4.888693750E0,-2.028072625E-2,1.535889693E-2,1.911135577E-2
4.893657813E0,-2.028072625E-2,1.535889693E-2,1.911135577E-2
4.898620313E0,-1.864011586E-2,4.241149873E-3,2.726204321E-2
4.903582813E0,-1.864011586E-2,4.241149873E-3,2.726204321E-2
4.908546875E0,-1.781981252E-2,-2.024581889E-3,3.494149074E-2
4.913509375E0,-1.781981252E-2,-2.024581889E-3,3.494149074E-2
4.918471875E0,-1.853539608E-2,2.059488557E-3,4.094542563E-2
4.923435938E0,-1.853539608E-2,2.059488557E-3,4.094542563E-2
4.928398438E0,-2.185152285E-2,1.122246683E-2,4.078834504E-2
4.933362500E0,-2.185152285E-2,1.122246683E-2,4.078834504E-2
4.938326563E0,-2.858849242E-2,2.949606441E-2,3.707079217E-2
4.943289063E0,-2.858849242E-2,2.949606441E-2,3.707079217E-2
4.948251563E0,-3.534291685E-2,5.794493109E-2,3.255039081E-2
4.953214063E0,-3.534291685E-2,5.794493109E-2,3.255039081E-2
4.958178125E0,-3.129375353E-2,7.290240377E-2,2.820452116E-2
4.963140625E0,-3.129375353E-2,7.290240377E-2,2.820452116E-2
4.968104688E0,-4.380776547E-3,1.429424621E-2,4.921828397E-3
4.973067188E0,-4.380776547E-3,1.429424621E-2,4.921828397E-3
4.978029688E0,-3.089232836E-3,1.418952644E-2,2.652900526E-3
4.982993750E0,-3.089232836E-3,1.418952644E-2,2.652900526E-3
4.987956250E0,-2.111848444E-3,1.338667516E-2,-1.343903481E-3
4.992920313E0,-2.111848444E-3,1.338667516E-2,-1.343903481E-3
4.997882813E0,-8.342674002E-3,1.007753089E-1,-2.082177810E-2
5.002846875E0,-8.342674002E-3,1.007753089E-1,-2.082177810E-2
5.007809375E0,-1.326450263E-3,2.073451132E-2,-5.131267942E-3
5.012771875E0,-1.326450263E-3,2.073451132E-2,-5.131267942E-3
5.017735938E0,-6.108652451E-4,2.047271281E-2,-5.794493016E-3
5.022698438E0,-6.108652451E-4,2.047271281E-2,-5.794493016E-3
5.027662500E0,-8.901178953E-4,9.923942387E-2,-2.968805097E-2
5.032625000E0,-8.901178953E-4,9.923942387E-2,-2.968805097E-2
5.037589063E0,-4.188790335E-4,1.806415804E-2,-4.694935866E-3
5.042551563E0,-4.188790335E-4,1.806415804E-2,-4.694935866E-3
5.047514063E0,-4.206243437E-3,1.109505817E-1,-2.017600648E-2
5.052478125E0,-4.206243437E-3,1.109505817E-1,-2.017600648E-2
5.057442188E0,-4.049163777E-3,1.089783609E-1,-1.621410809E-2
5.062404688E0,-4.049163777E-3,1.089783609E-1,-1.621410809E-2
5.067367188E0,-7.679448463E-3,1.077391729E-1,-1.321214251E-2
5.072329688E0,-7.679448463E-3,1.077391729E-1,-1.321214251E-2
5.077293750E0,-1.549852360E-2,1.137256548E-1,-9.564404376E-3
5.082256250E0,-1.549852360E-2,1.137256548E-1,-9.564404376E-3
5.087220313E0,-2.370157093E-2,1.202182770E-1,-6.073745899E-3
5.092182813E0,-2.370157093E-2,1.202182770E-1,-6.073745899E-3
5.097146875E0,-2.562143281E-2,1.247561350E-1,-3.298672382E-3
5.102109375E0,-2.562143281E-2,1.247561350E-1,-3.298672382E-3
5.107073438E0,-2.064724453E-2,1.259953231E-1,-1.343903481E-3
5.112035938E0,-2.064724453E-2,1.259953231E-1,-1.343903481E-3
5.116998438E0,-1.096066739E-2,1.208989546E-1,-6.981316837E-4
5.121962500E0,-1.096066739E-2,1.208989546E-1,-6.981316837E-4
5.126925000E0,-4.450589418E-3,1.196074113E-1,-8.203047328E-4
5.131889063E0,-4.450589418E-3,1.196074113E-1,-8.203047328E-4
5.136851563E0,-2.600540640E-3,1.236216724E-1,-1.047197497E-3
5.141814063E0,-2.600540640E-3,1.236216724E-1,-1.047197497E-3
5.146778125E0,-1.221730490E-4,1.375144869E-1,7.504915702E-4
5.151740625E0,-1.221730490E-4,1.375144869E-1,7.504915702E-4
5.156704688E0,1.111774705E-2,1.245117858E-1,-1.396263397E-4
5.161667188E0,1.111774705E-2,1.245117858E-1,-1.396263397E-4
5.166629688E0,2.569124661E-2,1.060811132E-1,1.745329246E-5
5.171593750E0,2.569124661E-2,1.060811132E-1,1.745329246E-5
5.176557813E0,3.244566917E-2,1.006705910E-1,1.832595677E-3
5.181520313E0,3.244566917E-2,1.006705910E-1,1.832595677E-3
5.186482813E0,2.862340026E-2,1.016654298E-1,3.298672382E-3
5.191446875E0,2.862340026E-2,1.016654298E-1,3.298672382E-3
5.196409375E0,2.062979154E-2,1.053306237E-1,7.627088577E-3
5.201373438E0,2.062979154E-2,1.053306237E-1,7.627088577E-3
5.206335938E0,1.361356769E-2,9.831439704E-2,1.345648803E-2
5.211298438E0,1.361356769E-2,9.831439704E-2,1.345648803E-2
5.216262500E0,9.459684603E-3,9.456194192E-2,2.169444226E-2
5.221225000E0,9.459684603E-3,9.456194192E-2,2.169444226E-2
5.226189063E0,7.801621687E-3,8.066911995E-2,2.974040993E-2
5.231151563E0,7.801621687E-3,8.066911995E-2,2.974040993E-2
5.236114063E0,5.550147034E-3,7.775441557E-2,3.740240633E-2
5.241078125E0,5.550147034E-3,7.775441557E-2,3.740240633E-2
5.246040625E0,-4.537856148E-4,9.388125688E-2,4.672246426E-2
5.251004688E0,-4.537856148E-4,9.388125688E-2,4.672246426E-2
5.255967188E0,-1.001818944E-2,1.282293350E-1,5.291838199E-2
5.260931250E0,-1.001818944E-2,1.282293350E-1,5.291838199E-2
5.265893750E0,-1.947787404E-2,1.568178385E-1,5.527457595E-2
5.270857813E0,-1.947787404E-2,1.568178385E-1,5.527457595E-2
5.275820313E0,-2.584832534E-2,1.697507203E-1,5.349434167E-2
5.280782813E0,-2.584832534E-2,1.697507203E-1,5.349434167E-2
5.285746875E0,-2.890265174E-2,1.809208244E-1,5.037020147E-2
5.290709375E0,-2.890265174E-2,1.809208244E-1,5.037020147E-2
5.295673438E0,-3.181735054E-2,1.997529268E-1,4.783947393E-2
5.300635938E0,-3.181735054E-2,1.997529268E-1,4.783947393E-2
5.305598438E0,-3.776892647E-2,2.133490443E-1,4.656538367E-2
5.310562500E0,-3.776892647E-2,2.133490443E-1,4.656538367E-2
5.315525000E0,-4.290019348E-2,2.186199427E-1,4.342379048E-2
5.320489063E0,-4.290019348E-2,2.186199427E-1,4.342379048E-2
5.325451563E0,-4.494222626E-2,2.114815414E-1,3.410373256E-2
5.330415625E0,-4.494222626E-2,2.114815414E-1,3.410373256E-2
5.335378125E0,-4.576253146E-2,2.168571651E-1,2.480112948E-2
5.340342188E0,-4.576253146E-2,2.168571651E-1,2.480112948E-2
5.345304688E0,-4.420918971E-2,2.245191485E-1,1.628392190E-2
5.350267188E0,-4.420918971E-2,2.245191485E-1,1.628392190E-2
5.355231250E0,-8.185594343E-3,4.590215907E-2,1.884955564E-3
5.360193750E0,-8.185594343E-3,4.590215907E-2,1.884955564E-3
5.365157813E0,-8.115780540E-3,4.782202095E-2,9.599310579E-4
5.370120313E0,-8.115780540E-3,4.782202095E-2,9.599310579E-4
5.375084375E0,-7.749261800E-3,4.745550081E-2,2.443460980E-4
5.380046875E0,-7.749261800E-3,4.745550081E-2,2.443460980E-4
5.385009375E0,-7.400196046E-3,4.562290758E-2,2.443460980E-4
5.389973438E0,-7.400196046E-3,4.562290758E-2,2.443460980E-4
5.394935938E0,-7.120943163E-3,4.391248524E-2,6.283185212E-4
5.399900000E0,-7.120943163E-3,4.391248524E-2,6.283185212E-4
5.404862500E0,-6.544984877E-3,4.319689795E-2,1.326450263E-3
5.409825000E0,-6.544984877E-3,4.319689795E-2,1.326450263E-3
5.414789063E0,-3.220132366E-2,2.220058739E-1,9.599311277E-3
5.419751563E0,-3.220132366E-2,2.220058739E-1,9.599311277E-3
5.424715625E0,-3.108431399E-2,2.137504667E-1,1.162389293E-2
5.429678125E0,-3.108431399E-2,2.137504667E-1,1.162389293E-2
5.434642188E0,-3.235840425E-2,2.032435834E-1,1.905899495E-2
5.439604688E0,-3.235840425E-2,2.032435834E-1,1.905899495E-2
5.444567188E0,-3.298672289E-2,1.880941391E-1,3.296926990E-2
5.449531250E0,-3.298672289E-2,1.880941391E-1,3.296926990E-2
5.454493750E0,-3.028146178E-2,1.671676338E-1,4.567526653E-2
5.459457813E0,-3.028146178E-2,1.671676338E-1,4.567526653E-2
5.464420313E0,-3.965387866E-2,1.650034338E-1,5.220279843E-2
5.469384375E0,-3.965387866E-2,1.650034338E-1,5.220279843E-2
5.474346875E0,-5.864306167E-2,1.854063272E-1,5.475097895E-2
5.479309375E0,-5.864306167E-2,1.854063272E-1,5.475097895E-2
5.484273438E0,-7.096508890E-2,1.856681257E-1,4.937536269E-2
5.489235938E0,-7.096508890E-2,1.856681257E-1,4.937536269E-2
5.494200000E0,-6.771877408E-2,1.646718085E-1,4.094542563E-2
5.499162500E0,-6.771877408E-2,1.646718085E-1,4.094542563E-2
5.504125000E0,-5.670574680E-2,1.378111988E-1,3.445279971E-2
5.509089063E0,-5.670574680E-2,1.378111988E-1,3.445279971E-2
5.514051563E0,-4.834562168E-2,1.359960586E-1,2.789036185E-2
5.519015625E0,-4.834562168E-2,1.359960586E-1,2.789036185E-2
5.523978125E0,-4.365068302E-2,1.383173466E-1,1.274090353E-2
5.528942188E0,-4.365068302E-2,1.383173466E-1,1.274090353E-2
5.533904688E0,-3.925245628E-2,1.388933063E-1,-8.726646192E-3
5.538867188E0,-3.925245628E-2,1.388933063E-1,-8.726646192E-3
5.543831250E0,-3.478441015E-2,1.448099613E-1,-2.707005665E-2
5.548795313E0,-3.478441015E-2,1.448099613E-1,-2.707005665E-2
5.553757813E0,-3.077015467E-2,1.379857361E-1,-3.721041977E-2
5.558720313E0,-3.077015467E-2,1.379857361E-1,-3.721041977E-2
5.563684375E0,-2.607521974E-2,1.196423173E-1,-4.117231816E-2
5.568646875E0,-2.607521974E-2,1.196423173E-1,-4.117231816E-2
5.573609375E0,-2.099631168E-2,9.868091345E-2,-3.738495335E-2
5.578573438E0,-2.099631168E-2,9.868091345E-2,-3.738495335E-2
5.583535938E0,-1.562069636E-2,8.391542733E-2,-3.178244457E-2
5.588498438E0,-1.562069636E-2,8.391542733E-2,-3.178244457E-2
5.593462500E0,-1.092576142E-2,6.763150543E-2,-2.794272080E-2
5.598426563E0,-1.092576142E-2,6.763150543E-2,-2.794272080E-2
5.603389063E0,-8.429939859E-3,6.489133835E-2,-2.326523885E-2
5.608351563E0,-8.429939859E-3,6.489133835E-2,-2.326523885E-2
5.613315625E0,-5.619960371E-3,5.434955284E-2,-2.148500271E-2
5.618278125E0,-5.619960371E-3,5.434955284E-2,-2.148500271E-2
5.623242188E0,-2.129301662E-3,3.974114731E-2,-1.792453043E-2
5.628204688E0,-2.129301662E-3,3.974114731E-2,-1.792453043E-2
5.633168750E0,-4.014257283E-4,2.691297606E-2,-1.295034308E-2
5.638131250E0,-4.014257283E-4,2.691297606E-2,-1.295034308E-2
5.643093750E0,-2.967059845E-4,3.445279971E-2,-6.527531426E-3
5.648056250E0,-2.967059845E-4,3.445279971E-2,-6.527531426E-3
5.653020313E0,1.221730490E-4,5.113814771E-2,-3.525565146E-3
5.657984375E0,1.221730490E-4,5.113814771E-2,-3.525565146E-3
5.662946875E0,1.797689125E-3,4.848524556E-2,-2.932153177E-3
5.667909375E0,1.797689125E-3,4.848524556E-2,-2.932153177E-3
5.672871875E0,5.515240598E-3,3.192207217E-2,-3.351032268E-3
5.677835938E0,5.515240598E-3,3.192207217E-2,-3.351032268E-3
5.682798438E0,9.285151958E-3,2.323033288E-2,-8.203047328E-4
5.687762500E0,9.285151958E-3,2.323033288E-2,-8.203047328E-4
5.692726563E0,1.045452245E-2,2.750638872E-2,5.044001620E-3
5.697689063E0,1.045452245E-2,2.750638872E-2,5.044001620E-3
5.702651563E0,9.285151958E-3,3.993313387E-2,1.129228063E-2
5.707615625E0,9.285151958E-3,3.993313387E-2,1.129228063E-2
5.712578125E0,7.155850064E-3,5.202826485E-2,1.675515994E-2
5.717542188E0,7.155850064E-3,5.202826485E-2,1.675515994E-2
5.722504688E0,4.171337001E-3,5.707226694E-2,2.036799304E-2
5.727468750E0,4.171337001E-3,5.707226694E-2,2.036799304E-2
5.732431250E0,1.570796361E-3,6.115633622E-2,2.343977243E-2
5.737395313E0,1.570796361E-3,6.115633622E-2,2.343977243E-2
5.742357813E0,8.377580671E-4,6.183701381E-2,2.274163999E-2
5.747320313E0,8.377580671E-4,6.183701381E-2,2.274163999E-2
5.752284375E0,-8.726646192E-4,7.075564563E-2,2.160717547E-2
5.757246875E0,-8.726646192E-4,7.075564563E-2,2.160717547E-2
5.762209375E0,-2.548180753E-3,7.440338284E-2,1.846558414E-2
5.767173438E0,-2.548180753E-3,7.440338284E-2,1.846558414E-2
5.772135938E0,-1.902408898E-3,7.291985303E-2,1.581268385E-2
5.777098438E0,-1.902408898E-3,7.291985303E-2,1.581268385E-2
5.782062500E0,1.640609466E-3,5.457644537E-2,1.027998887E-2
5.787025000E0,1.640609466E-3,5.457644537E-2,1.027998887E-2
5.791989063E0,5.323254038E-3,4.040437192E-2,-1.623156248E-3
5.796951563E0,5.323254038E-3,4.040437192E-2,-1.623156248E-3
5.801914063E0,6.230825558E-3,4.495968297E-2,-1.434660610E-2
5.806878125E0,6.230825558E-3,4.495968297E-2,-1.434660610E-2
5.811840625E0,6.021386012E-3,4.338888451E-2,-2.523746155E-2
5.816804688E0,6.021386012E-3,4.338888451E-2,-2.523746155E-2
5.821767188E0,5.218534265E-3,4.459316283E-2,-2.878047898E-2
5.826731250E0,5.218534265E-3,4.459316283E-2,-2.878047898E-2
5.831695313E0,4.572762642E-3,3.447025269E-2,-2.591813914E-2
5.836657813E0,4.572762642E-3,3.447025269E-2,-2.591813914E-2
5.841620313E0,3.595378250E-3,3.024655581E-2,-1.870992966E-2
5.846584375E0,3.595378250E-3,3.024655581E-2,-1.870992966E-2
5.851546875E0,1.239183708E-3,2.209586836E-2,-1.169370580E-2
5.856509375E0,1.239183708E-3,2.209586836E-2,-1.169370580E-2
5.861473438E0,-5.044001620E-3,2.256710641E-2,-6.614797749E-3
5.866437500E0,-5.044001620E-3,2.256710641E-2,-6.614797749E-3
5.871398438E0,-1.687733456E-2,3.473205119E-2,-2.007128671E-3
5.876362500E0,-1.687733456E-2,3.473205119E-2,-2.007128671E-3
5.881326563E0,-2.979277074E-2,3.939208016E-2,1.082104165E-2
5.886289063E0,-2.979277074E-2,3.939208016E-2,1.082104165E-2
5.891251563E0,-3.803072497E-2,3.663446009E-2,2.794272080E-2
5.896215625E0,-3.803072497E-2,3.663446009E-2,2.794272080E-2
5.901178125E0,-4.398229718E-2,2.239257470E-2,3.738495335E-2
5.906140625E0,-4.398229718E-2,2.239257470E-2,3.738495335E-2
5.911104688E0,-4.399975017E-2,4.447098821E-2,4.412192479E-2
5.916067188E0,-4.399975017E-2,4.447098821E-2,4.412192479E-2
5.921031250E0,-4.017747939E-2,4.946263134E-2,4.153883457E-2
5.925993750E0,-4.017747939E-2,4.946263134E-2,4.153883457E-2
5.930957813E0,-3.543018550E-2,5.464625731E-2,4.054399952E-2
5.935921875E0,-3.543018550E-2,5.464625731E-2,4.054399952E-2
5.940884375E0,-3.253293782E-2,7.466518879E-2,4.415683076E-2
5.945846875E0,-3.253293782E-2,7.466518879E-2,4.415683076E-2
5.950809375E0,-3.202679008E-2,8.313003182E-2,4.733332992E-2
5.955773438E0,-3.202679008E-2,8.313003182E-2,4.733332992E-2
5.960737500E0,-3.431317210E-2,8.087855577E-2,5.077162758E-2
5.965698438E0,-3.431317210E-2,8.087855577E-2,5.077162758E-2
5.970662500E0,-3.892084211E-2,9.311331809E-2,5.590289459E-2
5.975625000E0,-3.892084211E-2,9.311331809E-2,5.590289459E-2
5.980589063E0,-4.687954485E-2,1.088736355E-1,5.859070271E-2
5.985553125E0,-4.687954485E-2,1.088736355E-1,5.859070271E-2
5.990515625E0,-5.670574680E-2,1.392249167E-1,6.037093699E-2
5.995479688E0,-5.670574680E-2,1.392249167E-1,6.037093699E-2
6.000442188E0,-6.574655324E-2,1.761909872E-1,5.967280641E-2
6.005406250E0,-6.574655324E-2,1.761909872E-1,5.967280641E-2
6.010368750E0,-6.640977412E-2,1.923003793E-1,5.581562966E-2
6.015331250E0,-6.640977412E-2,1.923003793E-1,5.581562966E-2
6.020295313E0,-5.707226694E-2,1.966287941E-1,5.314527452E-2
6.025257813E0,-5.707226694E-2,1.966287941E-1,5.314527452E-2
6.030221875E0,-4.684463516E-2,1.996656656E-1,4.663519561E-2
6.035182813E0,-4.684463516E-2,1.996656656E-1,4.663519561E-2
6.040146875E0,-3.700098023E-2,2.070309520E-1,3.303908184E-2
6.045109375E0,-3.700098023E-2,2.070309520E-1,3.303908184E-2
6.050073438E0,-2.731440216E-2,2.281319797E-1,1.595230959E-2
6.055035938E0,-2.731440216E-2,2.281319797E-1,1.595230959E-2
6.060000000E0,-2.186897583E-2,2.663547099E-1,6.859143730E-3
6.064962500E0,-2.186897583E-2,2.663547099E-1,6.859143730E-3
6.069925000E0,-1.432915311E-2,2.884505689E-1,3.176499158E-3
6.074890625E0,-1.432915311E-2,2.884505689E-1,3.176499158E-3
6.079851563E0,-1.047197584E-4,2.762681544E-1,3.665191471E-4
6.084815625E0,-1.047197584E-4,2.762681544E-1,3.665191471E-4
6.089778125E0,1.122246683E-2,2.737897933E-1,2.268928103E-3
6.094740625E0,1.122246683E-2,2.737897933E-1,2.268928103E-3
6.099706250E0,1.188569237E-2,2.907544076E-1,9.110618383E-3
6.104667188E0,1.188569237E-2,2.907544076E-1,9.110618383E-3
6.109631250E0,6.370451767E-3,3.322059810E-1,2.000147291E-2
6.114595313E0,6.370451767E-3,3.322059810E-1,2.000147291E-2
6.119557813E0,3.490658492E-5,3.648436368E-1,2.823942713E-2
6.124521875E0,3.490658492E-5,3.648436368E-1,2.823942713E-2
6.129482813E0,-3.804817796E-3,3.801676035E-1,3.351031989E-2
6.134446875E0,-3.804817796E-3,3.801676035E-1,3.351031989E-2
6.139409375E0,-4.939281847E-3,3.756995797E-1,3.539527580E-2
6.144373438E0,-4.939281847E-3,3.756995797E-1,3.539527580E-2
6.149335938E0,-1.193805225E-2,3.708475530E-1,3.705333918E-2
6.154300000E0,-1.193805225E-2,3.708475530E-1,3.705333918E-2
6.159264063E0,-2.246238664E-2,3.758741021E-1,4.009021446E-2
6.164225000E0,-2.246238664E-2,3.758741021E-1,4.009021446E-2
6.169190625E0,-2.902482450E-2,3.842691481E-1,4.333652556E-2
6.174153125E0,-2.902482450E-2,3.842691481E-1,4.333652556E-2
6.179115625E0,-2.687807009E-2,3.878121674E-1,4.433136433E-2
6.184078125E0,-2.687807009E-2,3.878121674E-1,4.433136433E-2
6.189042188E0,-2.213077433E-2,3.675139844E-1,3.893829510E-2
6.194004688E0,-2.213077433E-2,3.675139844E-1,3.893829510E-2
6.198967188E0,-1.802925020E-2,3.496417999E-1,3.054326214E-2
6.203932813E0,-1.802925020E-2,3.496417999E-1,3.054326214E-2
6.208893750E0,-1.567305624E-2,3.365867436E-1,1.991420612E-2
6.213857813E0,-1.567305624E-2,3.365867436E-1,1.991420612E-2
6.218821875E0,-2.775073517E-3,6.363470107E-2,2.146754880E-3
6.223784375E0,-2.775073517E-3,6.363470107E-2,2.146754880E-3
6.228746875E0,-3.141592722E-3,6.459463388E-2,7.504915702E-4
6.233710938E0,-3.141592722E-3,6.459463388E-2,7.504915702E-4
6.238673438E0,-3.577925032E-3,6.408849359E-2,5.235987919E-5
6.243635938E0,-3.577925032E-3,6.408849359E-2,5.235987919E-5
6.248600000E0,-4.223696887E-3,6.546729803E-2,5.235987919E-5
6.253564063E0,-4.223696887E-3,6.546729803E-2,5.235987919E-5
6.258526563E0,-4.904375412E-3,6.764896214E-2,5.235987919E-5
6.263489063E0,-4.904375412E-3,6.764896214E-2,5.235987919E-5
6.268451563E0,-4.904375412E-3,6.869615614E-2,-2.094395168E-4
6.273415625E0,-4.904375412E-3,6.869615614E-2,-2.094395168E-4
6.278378125E0,-4.293509759E-3,7.136651129E-2,-1.221730490E-4
6.283342188E0,-4.293509759E-3,7.136651129E-2,-1.221730490E-4
6.288304688E0,-3.717551241E-3,7.260569930E-2,3.490658492E-5
6.293268750E0,-3.717551241E-3,7.260569930E-2,3.490658492E-5
6.298231250E0,-1.764527895E-2,3.739018738E-1,9.424777818E-4
6.303193750E0,-1.764527895E-2,3.739018738E-1,9.424777818E-4
6.308157813E0,-1.197295822E-2,3.364645839E-1,1.518436475E-3
6.313121875E0,-1.197295822E-2,3.364645839E-1,1.518436475E-3
6.318084375E0,2.775073517E-3,2.858674824E-1,5.410520826E-4
6.323046875E0,2.775073517E-3,2.858674824E-1,5.410520826E-4
6.328009375E0,2.014109865E-2,2.344151735E-1,-1.675516134E-3
6.332973438E0,2.014109865E-2,2.344151735E-1,-1.675516134E-3
6.337937500E0,3.075270168E-2,1.770112962E-1,-6.422811653E-3
6.342901563E0,3.075270168E-2,1.770112962E-1,-6.422811653E-3
6.347862500E0,3.103195317E-2,1.535191536E-1,-4.677482415E-3
6.352826563E0,3.103195317E-2,1.535191536E-1,-4.677482415E-3
6.357789063E0,2.602285892E-2,1.513549536E-1,2.007128671E-3
6.362751563E0,2.602285892E-2,1.513549536E-1,2.007128671E-3
6.367715625E0,1.872738265E-2,1.614080518E-1,1.123992074E-2
6.372679688E0,1.872738265E-2,1.614080518E-1,1.123992074E-2
6.377642188E0,1.260127686E-2,1.535366178E-1,1.551597659E-2
6.382604688E0,1.260127686E-2,1.535366178E-1,1.551597659E-2
6.387567188E0,2.059488557E-3,2.593559213E-2,2.897246508E-3
6.392531250E0,2.059488557E-3,2.593559213E-2,2.897246508E-3
6.397493750E0,1.396263367E-3,2.741912194E-2,3.176499158E-3
6.402457813E0,1.396263367E-3,2.741912194E-2,3.176499158E-3
6.407420313E0,1.221730490E-4,2.785545401E-2,3.193952609E-3
6.412384375E0,1.221730490E-4,2.785545401E-2,3.193952609E-3
6.417346875E0,-5.288347602E-3,1.406560838E-1,1.589994878E-2
6.422310938E0,-5.288347602E-3,1.406560838E-1,1.589994878E-2
6.427273438E0,-8.848818950E-3,1.193456128E-1,1.487020496E-2
6.432235938E0,-8.848818950E-3,1.193456128E-1,1.487020496E-2
6.437200000E0,-4.869468510E-3,8.433430642E-2,1.394518092E-2
6.442162500E0,-4.869468510E-3,8.433430642E-2,1.394518092E-2
6.447126563E0,1.099557383E-3,6.201154739E-2,1.513200440E-2
6.452089063E0,1.099557383E-3,6.201154739E-2,1.513200440E-2
6.457051563E0,5.462880712E-3,4.572762549E-2,1.703441329E-2
6.462015625E0,5.462880712E-3,4.572762549E-2,1.703441329E-2
6.466978125E0,7.016223390E-3,3.511602432E-2,1.951278187E-2
6.471942188E0,7.016223390E-3,3.511602432E-2,1.951278187E-2
6.476904688E0,7.103490178E-3,3.003711626E-2,2.111848444E-2
6.481868750E0,7.103490178E-3,3.003711626E-2,2.111848444E-2
6.486831250E0,1.387536712E-2,3.052580915E-2,2.045525797E-2
6.491795313E0,1.387536712E-2,3.052580915E-2,2.045525797E-2
6.496757813E0,2.675589733E-2,3.057816811E-2,1.806415804E-2
6.501720313E0,2.675589733E-2,3.057816811E-2,1.806415804E-2
6.506684375E0,3.825761750E-2,5.496041849E-2,1.905899495E-2
6.511646875E0,3.825761750E-2,5.496041849E-2,1.905899495E-2
6.516610938E0,4.462806880E-2,9.203121066E-2,2.261946723E-2
6.521573438E0,4.462806880E-2,9.203121066E-2,2.261946723E-2
6.526537500E0,4.932300374E-2,1.269203424E-1,2.654645778E-2
6.531500000E0,4.932300374E-2,1.269203424E-1,2.654645778E-2
6.536462500E0,5.386086181E-2,1.420348883E-1,2.792526782E-2
6.541426563E0,5.386086181E-2,1.420348883E-1,2.792526782E-2
6.546389063E0,5.845107511E-2,1.422268748E-1,2.717477642E-2
6.551353125E0,5.845107511E-2,1.422268748E-1,2.717477642E-2
6.556315625E0,5.539675057E-2,1.637118906E-1,3.010693006E-2
6.561278125E0,5.539675057E-2,1.637118906E-1,3.010693006E-2
6.566242188E0,4.813618213E-2,1.904154271E-1,3.501130641E-2
6.571204688E0,4.813618213E-2,1.904154271E-1,3.501130641E-2
6.576168750E0,8.028514683E-3,3.993313387E-2,7.661995478E-3
6.581131250E0,8.028514683E-3,3.993313387E-2,7.661995478E-3
6.586095313E0,7.679448463E-3,4.492477328E-2,8.953538723E-3
6.591057813E0,7.679448463E-3,4.492477328E-2,8.953538723E-3
6.596021875E0,7.347836159E-3,4.841543362E-2,9.442231618E-3
6.600984375E0,7.347836159E-3,4.841543362E-2,9.442231618E-3
6.605946875E0,7.138396613E-3,5.174901336E-2,9.704031050E-3
6.610910938E0,7.138396613E-3,5.174901336E-2,9.704031050E-3
6.615873438E0,6.963863503E-3,5.808455870E-2,1.041961554E-2
6.620837500E0,6.963863503E-3,5.808455870E-2,1.041961554E-2
6.625800000E0,6.702064537E-3,6.705555320E-2,1.172861271E-2
6.630762500E0,6.702064537E-3,6.705555320E-2,1.172861271E-2
6.635726563E0,5.986479111E-3,7.543312758E-2,1.302015595E-2
6.640689063E0,5.986479111E-3,7.543312758E-2,1.302015595E-2
6.645653125E0,4.607669078E-3,8.056439459E-2,1.399754081E-2
6.650615625E0,4.607669078E-3,8.056439459E-2,1.399754081E-2
6.655578125E0,2.234021435E-3,9.108873457E-2,1.591740362E-2
6.660542188E0,2.234021435E-3,9.108873457E-2,1.591740362E-2
6.665504688E0,-6.457717973E-4,1.007229537E-1,1.766273193E-2
6.670468750E0,-6.457717973E-4,1.007229537E-1,1.766273193E-2
6.675431250E0,-1.799434423E-2,5.573011041E-1,1.002342552E-1
6.680395313E0,-1.799434423E-2,5.573011041E-1,1.002342552E-1
6.685357813E0,-2.729694918E-2,5.170712471E-1,9.840166569E-2
6.690320313E0,-2.729694918E-2,5.170712471E-1,9.840166569E-2
6.695284375E0,-3.173008561E-2,5.036845803E-1,1.006705910E-1
6.700246875E0,-3.173008561E-2,5.036845803E-1,1.006705910E-1
6.705210938E0,-3.157300502E-2,4.826708138E-1,9.950122237E-2
6.710173438E0,-3.157300502E-2,4.826708138E-1,9.950122237E-2
6.715137500E0,-2.864085324E-2,4.632103741E-1,9.512044489E-2
6.720100000E0,-2.864085324E-2,4.632103741E-1,9.512044489E-2
6.725062500E0,-2.186897583E-2,4.527384043E-1,9.004153311E-2
6.730026563E0,-2.186897583E-2,4.527384043E-1,9.004153311E-2
6.734989063E0,-1.670280099E-2,4.463330507E-1,8.587019891E-2
6.739953125E0,-1.670280099E-2,4.463330507E-1,8.587019891E-2
6.744915625E0,-1.460840553E-2,4.320213497E-1,7.878416032E-2
6.749879688E0,-1.460840553E-2,4.320213497E-1,7.878416032E-2
6.754842188E0,-6.963863503E-3,4.148822129E-1,7.105235010E-2
6.759804688E0,-6.963863503E-3,4.148822129E-1,7.105235010E-2
6.764768750E0,1.954768784E-3,3.967657089E-1,6.628760695E-2
6.769731250E0,1.954768784E-3,3.967657089E-1,6.628760695E-2
6.774695313E0,8.150687441E-3,3.943396807E-1,6.035348400E-2
6.779657813E0,8.150687441E-3,3.943396807E-1,6.035348400E-2
6.784621875E0,1.150172018E-2,3.832393885E-1,4.665265232E-2
6.789584375E0,1.150172018E-2,3.832393885E-1,4.665265232E-2
6.794546875E0,1.345648803E-2,3.636742532E-1,3.331833705E-2
6.799510938E0,1.345648803E-2,3.636742532E-1,3.331833705E-2
6.804473438E0,1.500983164E-2,3.484026194E-1,2.946115844E-2
6.809437500E0,1.500983164E-2,3.484026194E-1,2.946115844E-2
6.814400000E0,1.589994878E-2,3.276506662E-1,3.070034087E-2
6.819362500E0,1.589994878E-2,3.276506662E-1,3.070034087E-2
6.824326563E0,1.507964451E-2,3.052057326E-1,3.145083413E-2
6.829289063E0,1.507964451E-2,3.052057326E-1,3.145083413E-2
6.834253125E0,1.251401100E-2,2.886076570E-1,3.316125646E-2
6.839215625E0,1.251401100E-2,2.886076570E-1,3.316125646E-2
6.844179688E0,9.180432186E-3,2.602111399E-1,3.169517964E-2
6.849142188E0,9.180432186E-3,2.602111399E-1,3.169517964E-2
6.854106250E0,6.981316954E-3,2.341708243E-1,2.937389165E-2
6.859068750E0,6.981316954E-3,2.341708243E-1,2.937389165E-2
6.864031250E0,5.218534265E-3,2.150071114E-1,3.045599535E-2
6.868995313E0,5.218534265E-3,2.150071114E-1,3.045599535E-2
6.873957813E0,1.954768784E-3,2.007477731E-1,3.113667294E-2
6.878920313E0,1.954768784E-3,2.007477731E-1,3.113667294E-2
6.883884375E0,-1.396263397E-4,1.878148764E-1,2.850122750E-2
6.888846875E0,-1.396263397E-4,1.878148764E-1,2.850122750E-2
6.893810938E0,6.981316837E-4,1.710422635E-1,2.309070528E-2
6.898773438E0,6.981316837E-4,1.710422635E-1,2.309070528E-2
6.903737500E0,1.797689125E-3,1.527163088E-1,1.895427518E-2
6.908700000E0,1.797689125E-3,1.527163088E-1,1.895427518E-2
6.913662500E0,2.251474652E-3,1.317025423E-1,1.530653704E-2
6.918626563E0,2.251474652E-3,1.317025423E-1,1.530653704E-2
6.923590625E0,-1.029744279E-3,1.196597740E-1,1.024508290E-2
6.928553125E0,-1.029744279E-3,1.196597740E-1,1.024508290E-2
6.933515625E0,-7.696901914E-3,1.279675364E-1,6.161012221E-3
6.938479688E0,-7.696901914E-3,1.279675364E-1,6.161012221E-3
6.943442188E0,-1.528908405E-2,1.278802752E-1,-2.146754880E-3
6.948406250E0,-1.528908405E-2,1.278802752E-1,-2.146754880E-3
6.953368750E0,-1.926843449E-2,1.329242736E-1,-1.296779606E-2
6.958331250E0,-1.926843449E-2,1.329242736E-1,-1.296779606E-2
6.963295313E0,-1.872738265E-2,1.429424584E-1,-2.214822732E-2
6.968257813E0,-1.872738265E-2,1.429424584E-1,-2.214822732E-2
6.973220313E0,-1.504473854E-2,1.381951720E-1,-3.017674200E-2
6.978184375E0,-1.504473854E-2,1.381951720E-1,-3.017674200E-2
6.983146875E0,-1.162389293E-2,1.378460974E-1,-3.661700711E-2
6.988110938E0,-1.162389293E-2,1.378460974E-1,-3.661700711E-2
6.993073438E0,-9.302604944E-3,1.538856775E-1,-3.626793995E-2
6.998037500E0,-9.302604944E-3,1.538856775E-1,-3.626793995E-2
7.003000000E0,-8.150687441E-3,1.584933549E-1,-3.092723340E-2
7.007962500E0,-8.150687441E-3,1.584933549E-1,-3.092723340E-2
7.012925000E0,-7.487462368E-3,1.469741762E-1,-2.504547499E-2
7.017889063E0,-7.487462368E-3,1.469741762E-1,-2.504547499E-2
7.022853125E0,-7.487462368E-3,1.432391703E-1,-1.774999872E-2
7.027815625E0,-7.487462368E-3,1.432391703E-1,-1.774999872E-2
7.032779688E0,-7.435102481E-3,1.412145942E-1,-1.286307629E-2
7.037742188E0,-7.435102481E-3,1.412145942E-1,-1.286307629E-2
7.042706250E0,-7.435102481E-3,1.341111064E-1,-4.939281847E-3
7.047668750E0,-7.435102481E-3,1.341111064E-1,-4.939281847E-3
7.052632813E0,-7.941247895E-3,1.067268848E-1,8.691739291E-3
7.057593750E0,-7.941247895E-3,1.067268848E-1,8.691739291E-3
7.062559375E0,-9.424777701E-3,6.773623079E-2,2.909463830E-2
7.067521875E0,-9.424777701E-3,6.773623079E-2,2.909463830E-2
7.072484375E0,-1.237438433E-2,2.858849242E-2,5.213298276E-2
7.077446875E0,-1.237438433E-2,2.858849242E-2,5.213298276E-2
7.082410938E0,-1.680752076E-2,-2.757620299E-3,7.047639787E-2
7.087373438E0,-1.680752076E-2,-2.757620299E-3,7.047639787E-2
7.092335938E0,-2.368411794E-2,-1.377064735E-2,8.185594529E-2
7.097300000E0,-2.368411794E-2,-1.377064735E-2,8.185594529E-2
7.102264063E0,-3.216641769E-2,-7.819075137E-3,8.805186301E-2
7.107225000E0,-3.216641769E-2,-7.819075137E-3,8.805186301E-2
7.112189063E0,-4.543092102E-2,2.642428502E-2,9.412560612E-2
7.117151563E0,-4.543092102E-2,2.642428502E-2,9.412560612E-2
7.122115625E0,-6.183701381E-2,7.586946338E-2,9.531243145E-2
7.127078125E0,-6.183701381E-2,7.586946338E-2,9.531243145E-2
7.132042188E0,-7.576474547E-2,1.250353903E-1,9.290387481E-2
7.137004688E0,-7.576474547E-2,1.250353903E-1,9.290387481E-2
7.141968750E0,-8.354891092E-2,1.797165573E-1,9.143780172E-2
7.146931250E0,-8.354891092E-2,1.797165573E-1,9.143780172E-2
7.151895313E0,-8.236208558E-2,2.073625624E-1,8.759807795E-2
7.156857813E0,-8.236208558E-2,2.073625624E-1,8.759807795E-2
7.161820313E0,-7.326892018E-2,1.897871047E-1,7.627088577E-2
7.166784375E0,-7.326892018E-2,1.897871047E-1,7.627088577E-2
7.171748438E0,-6.539748609E-2,2.018647790E-1,6.253514439E-2
7.176710938E0,-6.539748609E-2,2.018647790E-1,6.253514439E-2
7.181673438E0,-6.065019220E-2,2.400700450E-1,4.736823589E-2
7.186637500E0,-6.065019220E-2,2.400700450E-1,4.736823589E-2
7.191600000E0,-5.921902135E-2,2.824117243E-1,3.481931984E-2
7.196562500E0,-5.921902135E-2,2.824117243E-1,3.481931984E-2
7.201526563E0,-5.948081985E-2,3.089931011E-1,2.794272080E-2
7.206490625E0,-5.948081985E-2,3.089931011E-1,2.794272080E-2
7.211451563E0,-5.970771238E-2,3.217165470E-1,2.804744057E-2
7.216415625E0,-5.970771238E-2,3.217165470E-1,2.804744057E-2
7.221379688E0,-5.969025940E-2,3.266034722E-1,2.953097038E-2
7.226342188E0,-5.969025940E-2,3.266034722E-1,2.953097038E-2
7.231304688E0,-5.764822662E-2,3.180688024E-1,2.574360557E-2
7.236268750E0,-5.764822662E-2,3.180688024E-1,2.574360557E-2
7.241231250E0,-5.054473504E-2,3.036349416E-1,2.033308521E-2
7.246193750E0,-5.054473504E-2,3.036349416E-1,2.033308521E-2
7.251157813E0,-4.049163684E-2,2.872986495E-1,1.637118869E-2
7.256121875E0,-4.049163684E-2,2.872986495E-1,1.637118869E-2
7.261085938E0,-3.127630055E-2,2.712416053E-1,1.495747175E-2
7.266046875E0,-3.127630055E-2,2.712416053E-1,1.495747175E-2
7.271010938E0,-2.876302600E-2,2.628989518E-1,1.658062823E-2
7.275973438E0,-2.876302600E-2,2.628989518E-1,1.658062823E-2
7.280935938E0,-2.223549411E-2,2.496518940E-1,1.822123677E-2
7.285901563E0,-2.223549411E-2,2.496518940E-1,1.822123677E-2
7.290864063E0,-1.396263397E-4,1.887748092E-1,1.172861271E-2
7.295826563E0,-1.396263397E-4,1.887748092E-1,1.172861271E-2
7.300789063E0,3.349286690E-2,9.477137774E-2,-8.028514567E-4
7.305753125E0,3.349286690E-2,9.477137774E-2,-8.028514567E-4
7.310715625E0,6.632251292E-2,1.389282104E-2,-1.155408006E-2
7.315678125E0,6.632251292E-2,1.389282104E-2,-1.155408006E-2
7.320642188E0,8.583529294E-2,-3.042108938E-2,-1.476548519E-2
7.325604688E0,8.583529294E-2,-3.042108938E-2,-1.476548519E-2
7.330568750E0,9.262461960E-2,-4.536110535E-2,-1.380555425E-2
7.335531250E0,9.262461960E-2,-4.536110535E-2,-1.380555425E-2
7.340495313E0,9.267698228E-2,-5.937610194E-2,-1.448623277E-2
7.345457813E0,9.267698228E-2,-5.937610194E-2,-1.448623277E-2
7.350421875E0,8.759807795E-2,-5.962044746E-2,-1.504473854E-2
7.355384375E0,8.759807795E-2,-5.962044746E-2,-1.504473854E-2
7.360346875E0,7.660250366E-2,-4.721115530E-2,-1.410226058E-2
7.365310938E0,7.660250366E-2,-4.721115530E-2,-1.410226058E-2
7.370273438E0,6.475171447E-2,-2.560397983E-2,-1.096066739E-2
7.375237500E0,6.475171447E-2,-2.560397983E-2,-1.096066739E-2
7.380201563E0,5.522221699E-2,-9.651671164E-3,-9.354964830E-3
7.385162500E0,5.522221699E-2,-9.651671164E-3,-9.354964830E-3
7.390126563E0,5.038765445E-2,-8.080874570E-3,-1.298524998E-2
7.395089063E0,5.038765445E-2,-8.080874570E-3,-1.298524998E-2
7.400053125E0,4.749041051E-2,-6.632251199E-3,-1.813396998E-2
7.405015625E0,4.749041051E-2,-6.632251199E-3,-1.813396998E-2
7.409979688E0,4.516912252E-2,-9.250245057E-4,-2.321287990E-2
7.414942188E0,4.516912252E-2,-9.250245057E-4,-2.321287990E-2
7.419904688E0,3.970624134E-2,2.703515068E-2,-2.158972248E-2
7.424868750E0,3.970624134E-2,2.703515068E-2,-2.158972248E-2
7.429831250E0,3.558726236E-2,3.220132366E-2,-2.110103145E-2
7.434795313E0,3.558726236E-2,3.220132366E-2,-2.110103145E-2
7.439759375E0,3.527310491E-2,2.204350755E-2,-1.979203336E-2
7.444721875E0,3.527310491E-2,2.204350755E-2,-1.979203336E-2
7.449685938E0,3.883357719E-2,1.082104165E-3,-1.864011586E-2
7.454648438E0,3.883357719E-2,1.082104165E-3,-1.864011586E-2
7.459612500E0,4.701916873E-2,-1.979203336E-2,-1.774999872E-2
7.464573438E0,4.701916873E-2,-1.979203336E-2,-1.774999872E-2
7.469537500E0,5.504768342E-2,-3.406882659E-2,-1.713913307E-2
7.474500000E0,5.504768342E-2,-3.406882659E-2,-1.713913307E-2
7.479462500E0,5.569345504E-2,-8.726646192E-3,-1.223475765E-2
7.484426563E0,5.569345504E-2,-8.726646192E-3,-1.223475765E-2
7.489390625E0,5.632177368E-2,4.014257283E-4,-7.627088577E-3
7.494353125E0,5.632177368E-2,4.014257283E-4,-7.627088577E-3
7.499315625E0,5.977752805E-2,-4.049163684E-2,-6.684611086E-3
7.504279688E0,5.977752805E-2,-4.049163684E-2,-6.684611086E-3
7.509242188E0,6.401867419E-2,-8.429940045E-2,-2.984513063E-3
7.514204688E0,6.401867419E-2,-8.429940045E-2,-2.984513063E-3
7.519168750E0,6.517059356E-2,-1.207418740E-1,2.914699726E-3
7.524131250E0,6.517059356E-2,-1.207418740E-1,2.914699726E-3
7.529095313E0,6.297148019E-2,-1.515469402E-1,1.129228063E-2
7.534059375E0,6.297148019E-2,-1.515469402E-1,1.129228063E-2
7.539021875E0,5.949827284E-2,-1.768018454E-1,2.040289901E-2
7.543984375E0,5.949827284E-2,-1.768018454E-1,2.040289901E-2
7.548948438E0,5.419247225E-2,-1.917767823E-1,3.241076320E-2
7.553912500E0,5.419247225E-2,-1.917767823E-1,3.241076320E-2
7.558875000E0,4.667010531E-2,-1.890540570E-1,4.495968297E-2
7.563837500E0,4.667010531E-2,-1.890540570E-1,4.495968297E-2
7.568801563E0,3.909537569E-2,-1.793849468E-1,5.115560070E-2
7.573764063E0,3.909537569E-2,-1.793849468E-1,5.115560070E-2
7.578726563E0,3.481931984E-2,-1.679355800E-1,5.019566789E-2
7.583689063E0,3.481931984E-2,-1.679355800E-1,5.019566789E-2
7.588653125E0,2.363175713E-2,-1.295906901E-1,4.827580601E-2
7.593615625E0,2.363175713E-2,-1.295906901E-1,4.827580601E-2
7.598579688E0,6.387905218E-3,-7.042403519E-2,4.544837400E-2
7.603543750E0,6.387905218E-3,-7.042403519E-2,4.544837400E-2
7.608506250E0,-1.307251584E-2,-3.717551241E-3,4.345869645E-2
7.613468750E0,-1.307251584E-2,-3.717551241E-3,4.345869645E-2
7.618431250E0,-2.806489356E-2,4.932300374E-2,4.293509945E-2
7.623395313E0,-2.806489356E-2,4.932300374E-2,4.293509945E-2
7.628357813E0,-3.474950418E-2,6.159266829E-2,4.036946595E-2
7.633321875E0,-3.474950418E-2,6.159266829E-2,4.036946595E-2
7.638285938E0,-3.399901465E-2,6.375687569E-2,3.687880561E-2
7.643248438E0,-3.399901465E-2,6.375687569E-2,3.687880561E-2
7.648210938E0,-3.078760765E-2,6.585127115E-2,3.398156166E-2
7.653173438E0,-3.078760765E-2,6.585127115E-2,3.398156166E-2
7.658137500E0,-3.111921996E-2,6.511823088E-2,3.256784379E-2
7.663101563E0,-3.111921996E-2,6.511823088E-2,3.256784379E-2
7.668064063E0,-3.291691095E-2,6.934192777E-2,3.206169978E-2
7.673026563E0,-3.291691095E-2,6.934192777E-2,3.206169978E-2
7.677990625E0,-3.291691095E-2,6.759659946E-2,3.010693006E-2
7.682953125E0,-3.291691095E-2,6.759659946E-2,3.010693006E-2
7.687915625E0,-3.110176697E-2,6.551966071E-2,2.940879762E-2
7.692879688E0,-3.110176697E-2,6.551966071E-2,2.940879762E-2
7.697843750E0,-2.764601447E-2,6.820746511E-2,2.834414691E-2
7.702806250E0,-2.764601447E-2,6.820746511E-2,2.834414691E-2
7.707770313E0,-2.439970337E-2,7.942993194E-2,2.631956525E-2
7.712732813E0,-2.439970337E-2,7.942993194E-2,2.631956525E-2
7.717695313E0,-2.155481651E-2,1.032362282E-1,2.541199327E-2
7.722657813E0,-2.155481651E-2,1.032362282E-1,2.541199327E-2
7.727621875E0,-1.907644793E-2,1.145983189E-1,2.324778587E-2
7.732584375E0,-1.907644793E-2,1.145983189E-1,2.324778587E-2
7.737548438E0,-1.139700040E-2,9.695304185E-2,1.951278187E-2
7.742510938E0,-1.139700040E-2,9.695304185E-2,1.951278187E-2
7.747473438E0,2.199114766E-3,7.810348272E-2,1.190314535E-2
7.752437500E0,2.199114766E-3,7.810348272E-2,1.190314535E-2
7.757400000E0,1.574287005E-2,7.506661117E-2,1.605702913E-3
7.762364063E0,1.574287005E-2,7.506661117E-2,1.605702913E-3
7.767326563E0,2.480112948E-2,7.801621407E-2,-7.103490178E-3
7.772289063E0,2.480112948E-2,7.801621407E-2,-7.103490178E-3
7.777253125E0,2.497566119E-2,7.326892018E-2,-1.151917316E-2
7.782215625E0,2.497566119E-2,7.326892018E-2,-1.151917316E-2
7.787181250E0,2.176425606E-2,6.403613091E-2,-1.134464052E-2
7.792142188E0,2.176425606E-2,6.403613091E-2,-1.134464052E-2
7.797106250E0,2.019345947E-2,4.228932783E-2,-1.195550524E-2
7.802068750E0,2.019345947E-2,4.228932783E-2,-1.195550524E-2
7.807032813E0,1.780235767E-2,4.529129341E-2,-9.564404376E-3
7.811995313E0,1.780235767E-2,4.529129341E-2,-9.564404376E-3
7.816957813E0,1.673770696E-2,6.007423252E-2,-6.387905218E-3
7.821921875E0,1.673770696E-2,6.007423252E-2,-6.387905218E-3
7.826885938E0,1.710422710E-2,7.220426947E-2,-4.171337001E-3
7.831848438E0,1.710422710E-2,7.220426947E-2,-4.171337001E-3
7.836810938E0,2.036799304E-2,6.529276818E-2,-4.869468510E-3
7.841775000E0,2.036799304E-2,6.529276818E-2,-4.869468510E-3
7.846737500E0,2.438225038E-2,4.328416660E-2,-9.372417815E-3
7.851700000E0,2.438225038E-2,4.328416660E-2,-9.372417815E-3
7.856664063E0,2.637192421E-2,2.220058814E-2,-1.528908405E-2
7.861626563E0,2.637192421E-2,2.220058814E-2,-1.528908405E-2
7.866590625E0,2.459168993E-2,3.560471535E-2,-1.923352852E-2
7.871553125E0,2.459168993E-2,3.560471535E-2,-1.923352852E-2
7.876515625E0,4.153883550E-3,6.981316954E-3,-4.782202188E-3
7.881479688E0,4.153883550E-3,6.981316954E-3,-4.782202188E-3
7.886442188E0,4.153883550E-3,3.193952609E-3,-6.003932562E-3
7.891406250E0,4.153883550E-3,3.193952609E-3,-6.003932562E-3
7.896368750E0,4.433136433E-3,-3.508111695E-3,-6.789330859E-3
7.901332813E0,4.433136433E-3,-3.508111695E-3,-6.789330859E-3
7.906295313E0,4.276056774E-3,-6.492624991E-3,-6.405358203E-3
7.911259375E0,4.276056774E-3,-6.492624991E-3,-6.405358203E-3
7.916221875E0,4.049163777E-3,-9.738937020E-3,-5.986479111E-3
7.921184375E0,4.049163777E-3,-9.738937020E-3,-5.986479111E-3
7.926148438E0,3.787364578E-3,-9.407324716E-3,-5.427973811E-3
7.931110938E0,3.787364578E-3,-9.407324716E-3,-5.427973811E-3
7.936075000E0,3.333578818E-3,-8.045967668E-3,-4.712388851E-3
7.941037500E0,3.333578818E-3,-8.045967668E-3,-4.712388851E-3
7.946000000E0,1.576032303E-2,-3.515093029E-2,-1.731366664E-2
7.950964063E0,1.576032303E-2,-3.515093029E-2,-1.731366664E-2
7.955926563E0,1.385791413E-2,-1.136209350E-2,-9.389871731E-3
7.960890625E0,1.385791413E-2,-1.136209350E-2,-9.389871731E-3
7.965853125E0,1.375319436E-2,4.646066576E-2,-3.822271014E-3
7.970817188E0,1.375319436E-2,4.646066576E-2,-3.822271014E-3
7.975779688E0,1.504473854E-2,8.297295123E-2,-5.131267942E-3
7.980743750E0,1.504473854E-2,8.297295123E-2,-5.131267942E-3
7.985706250E0,1.539380383E-2,8.424704522E-2,-9.669124149E-3
7.990668750E0,1.539380383E-2,8.424704522E-2,-9.669124149E-3
7.995632813E0,1.759291813E-2,7.667231560E-2,-1.146681327E-2
8.000595313E0,1.759291813E-2,7.667231560E-2,-1.146681327E-2
8.005559375E0,2.331759781E-2,3.255039081E-2,-1.591740362E-2
8.010521875E0,2.331759781E-2,3.255039081E-2,-1.591740362E-2
8.015484375E0,2.656391077E-2,3.665191354E-3,-2.150245570E-2
8.020448438E0,2.656391077E-2,3.665191354E-3,-2.150245570E-2
8.025410938E0,2.338741161E-2,4.014257283E-4,-2.419026382E-2
8.030375000E0,2.338741161E-2,4.014257283E-4,-2.419026382E-2
8.035337500E0,1.881464943E-2,-5.305801053E-3,-2.783800103E-2
8.040301563E0,1.881464943E-2,-5.305801053E-3,-2.783800103E-2
8.045264063E0,1.553343050E-2,9.634217247E-3,-2.694788389E-2
8.050226563E0,1.553343050E-2,9.634217247E-3,-2.694788389E-2
8.055190625E0,1.359611470E-2,3.012438305E-2,-2.535963431E-2
8.060153125E0,1.359611470E-2,3.012438305E-2,-2.535963431E-2
8.065117188E0,1.188569237E-2,5.209807679E-2,-2.577851340E-2
8.070079688E0,1.188569237E-2,5.209807679E-2,-2.577851340E-2
8.075042188E0,1.057669520E-2,1.060985625E-1,-2.331759781E-2
8.080006250E0,1.057669520E-2,1.060985625E-1,-2.331759781E-2
8.084968750E0,9.826203808E-3,1.594881862E-1,-2.274163999E-2
8.089932813E0,9.826203808E-3,1.594881862E-1,-2.274163999E-2
8.094895313E0,9.197885171E-3,1.971349418E-1,-1.916371472E-2
8.099859375E0,9.197885171E-3,1.971349418E-1,-1.916371472E-2
8.104821875E0,9.267698042E-3,2.064724565E-1,-1.480039209E-2
8.109784375E0,9.267698042E-3,2.064724565E-1,-1.480039209E-2
8.114748438E0,2.635447076E-3,3.344050795E-2,-2.321287990E-3
8.119710938E0,2.635447076E-3,3.344050795E-2,-2.321287990E-3
8.124675000E0,2.176425606E-2,1.491732895E-1,-9.407324716E-3
8.129637500E0,2.176425606E-2,1.491732895E-1,-9.407324716E-3
8.134601563E0,2.562143281E-2,1.175653785E-1,-6.265731994E-3
8.139564063E0,2.562143281E-2,1.175653785E-1,-6.265731994E-3
8.144526563E0,2.406809106E-2,1.063603610E-1,-4.817108624E-3
8.149490625E0,2.406809106E-2,1.063603610E-1,-4.817108624E-3
8.154453125E0,1.631882787E-2,1.164658219E-1,3.822271014E-3
8.159417188E0,1.631882787E-2,1.164658219E-1,3.822271014E-3
8.164379688E0,6.719517522E-3,1.387711316E-1,2.068215236E-2
8.169342188E0,6.719517522E-3,1.387711316E-1,2.068215236E-2
8.174306250E0,2.617993741E-4,1.685813516E-1,3.923500329E-2
8.179268750E0,2.617993741E-4,1.685813516E-1,3.923500329E-2
8.184232813E0,-2.583087189E-3,1.899267286E-1,5.229006335E-2
8.189195313E0,-2.583087189E-3,1.899267286E-1,5.229006335E-2
8.194159375E0,-4.049163777E-3,2.171364129E-1,5.886995420E-2
8.199121875E0,-4.049163777E-3,2.171364129E-1,5.886995420E-2
8.204085938E0,-5.096361507E-3,2.657961845E-1,6.197664142E-2
8.209048438E0,-5.096361507E-3,2.657961845E-1,6.197664142E-2
8.214010938E0,-4.764748737E-3,3.125535548E-1,6.351253390E-2
8.218975000E0,-4.764748737E-3,3.125535548E-1,6.351253390E-2
8.223937500E0,-6.981316837E-4,3.340560198E-1,6.112143025E-2
8.228900000E0,-6.981316837E-4,3.340560198E-1,6.112143025E-2
8.233864063E0,1.061160211E-2,3.180339038E-1,5.503023043E-2
8.238826563E0,1.061160211E-2,3.180339038E-1,5.503023043E-2
8.243790625E0,2.851868048E-2,2.670528293E-1,4.577998444E-2
8.248753125E0,2.851868048E-2,2.670528293E-1,4.577998444E-2
8.253717188E0,4.441862926E-2,2.293537110E-1,3.851941600E-2
8.258679688E0,4.441862926E-2,2.293537110E-1,3.851941600E-2
8.263642188E0,5.234242231E-2,2.274687588E-1,3.452261165E-2
8.268606250E0,5.234242231E-2,2.274687588E-1,3.452261165E-2
8.273568750E0,5.331980810E-2,2.206794322E-1,2.871066518E-2
8.278532813E0,5.331980810E-2,2.206794322E-1,2.871066518E-2
8.283495313E0,4.982915148E-2,2.291617244E-1,2.598795295E-2
8.288459375E0,4.982915148E-2,2.291617244E-1,2.598795295E-2
8.293421875E0,4.579744115E-2,2.564586699E-1,2.750638872E-2
8.298384375E0,4.579744115E-2,2.564586699E-1,2.750638872E-2
8.303348438E0,4.300491139E-2,2.880142331E-1,3.117158078E-2
8.308310938E0,4.300491139E-2,2.880142331E-1,3.117158078E-2
8.313273438E0,4.328416660E-2,3.014881611E-1,3.272492439E-2
8.318237500E0,4.328416660E-2,3.014881611E-1,3.272492439E-2
8.323200000E0,4.708898440E-2,3.210882246E-1,3.518583626E-2
8.328164063E0,4.708898440E-2,3.210882246E-1,3.518583626E-2
8.333126563E0,9.791296907E-3,5.988224596E-2,6.527531426E-3
8.338090625E0,9.791296907E-3,5.988224596E-2,6.527531426E-3
8.343054688E0,1.115265395E-2,6.068509817E-2,6.719517522E-3
8.348017188E0,1.115265395E-2,6.068509817E-2,6.719517522E-3
8.352979688E0,1.247910410E-2,6.525786221E-2,7.452555932E-3
8.357943750E0,1.247910410E-2,6.525786221E-2,7.452555932E-3
8.362906250E0,1.394518092E-2,6.520549953E-2,7.574729156E-3
8.367870313E0,1.394518092E-2,6.520549953E-2,7.574729156E-3
8.372832813E0,1.523672417E-2,6.216862798E-2,8.133234456E-3
8.377796875E0,1.523672417E-2,6.216862798E-2,8.133234456E-3
8.382757813E0,1.591740362E-2,6.003932655E-2,9.791296907E-3
8.387721875E0,1.591740362E-2,6.003932655E-2,9.791296907E-3
8.392684375E0,1.642354764E-2,5.084143952E-2,1.108284108E-2
8.397648438E0,1.642354764E-2,5.084143952E-2,1.108284108E-2
8.402610938E0,1.652826741E-2,4.363323003E-2,1.232202444E-2
8.407575000E0,1.652826741E-2,4.363323003E-2,1.232202444E-2
8.412537500E0,1.628392190E-2,4.555309191E-2,1.328195538E-2
8.417500000E0,1.628392190E-2,4.555309191E-2,1.328195538E-2
8.422464063E0,1.619665511E-2,5.085889250E-2,1.439896598E-2
8.427428125E0,1.619665511E-2,5.085889250E-2,1.439896598E-2
8.432390625E0,1.644100063E-2,5.653121322E-2,1.507964451E-2
8.437353125E0,1.644100063E-2,5.653121322E-2,1.507964451E-2
8.442315625E0,1.670280099E-2,6.070255116E-2,1.541125681E-2
8.447279688E0,1.670280099E-2,6.070255116E-2,1.541125681E-2
8.452242188E0,1.684242673E-2,7.112216949E-2,1.647590846E-2
8.457206250E0,1.684242673E-2,7.112216949E-2,1.647590846E-2
8.462168750E0,1.759291813E-2,8.052948862E-2,1.729621366E-2
8.467131250E0,1.759291813E-2,8.052948862E-2,1.729621366E-2
8.472095313E0,1.939060725E-2,8.702211827E-2,1.780235767E-2
8.477057813E0,1.939060725E-2,8.702211827E-2,1.780235767E-2
8.482021875E0,2.246238664E-2,8.532914519E-2,1.733111963E-2
8.486984375E0,2.246238664E-2,8.532914519E-2,1.733111963E-2
8.491948438E0,2.614503168E-2,7.812093943E-2,1.616174914E-2
8.496910938E0,2.614503168E-2,7.812093943E-2,1.616174914E-2
8.501873438E0,2.893755957E-2,7.710864395E-2,1.577777602E-2
8.506837500E0,2.893755957E-2,7.710864395E-2,1.577777602E-2
8.511800000E0,2.960078418E-2,8.735372871E-2,1.685987972E-2
8.516764063E0,2.960078418E-2,8.735372871E-2,1.685987972E-2
8.521726563E0,1.514945775E-1,4.614650607E-1,8.773770183E-2
8.526689063E0,1.514945775E-1,4.614650607E-1,8.773770183E-2
8.531653125E0,1.359611452E-1,4.732983708E-1,8.614945412E-2
8.536615625E0,1.359611452E-1,4.732983708E-1,8.614945412E-2
8.541579688E0,1.201310083E-1,4.785692692E-1,8.485791087E-2
8.546542188E0,1.201310083E-1,4.785692692E-1,8.485791087E-2
8.551506250E0,1.047895700E-1,5.394114852E-1,9.075712413E-2
8.556468750E0,1.047895700E-1,5.394114852E-1,9.075712413E-2
8.561431250E0,9.101892263E-2,6.148271561E-1,9.824458510E-2
8.566395313E0,9.101892263E-2,6.148271561E-1,9.824458510E-2
8.571357813E0,8.026769012E-2,6.591410637E-1,1.009672955E-1
8.576321875E0,8.026769012E-2,6.591410637E-1,1.009672955E-1
8.581284375E0,6.883578748E-2,7.460409999E-1,1.091703475E-1
8.586248438E0,6.883578748E-2,7.460409999E-1,1.091703475E-1
8.591210938E0,5.731661245E-2,8.180183768E-1,1.163960099E-1
8.596173438E0,5.731661245E-2,8.180183768E-1,1.163960099E-1
8.601137500E0,4.686209187E-2,8.506560326E-1,1.214574650E-1
8.606100000E0,4.686209187E-2,8.506560326E-1,1.214574650E-1
8.611064063E0,3.356268257E-2,9.172577858E-1,1.324181259E-1
8.616026563E0,3.356268257E-2,9.172577858E-1,1.324181259E-1
8.620990625E0,1.670280099E-2,9.811019301E-1,1.433089823E-1
8.625953125E0,1.670280099E-2,9.811019301E-1,1.433089823E-1
8.630915625E0,-2.617993741E-4,1.050164580E0,1.538333148E-1
8.635879688E0,-2.617993741E-4,1.050164580E0,1.538333148E-1
8.640842188E0,-1.087340154E-2,1.086449981E0,1.581966430E-1
8.645806250E0,-1.087340154E-2,1.086449981E0,1.581966430E-1
8.650768750E0,-1.366592757E-2,1.143347740E0,1.628741324E-1
8.655732813E0,-1.366592757E-2,1.143347740E0,1.628741324E-1
8.660695313E0,-1.207767799E-2,1.209478259E0,1.657713652E-1
8.665657813E0,-1.207767799E-2,1.209478259E0,1.657713652E-1
8.670621875E0,-7.661995478E-3,1.207628250E0,1.597848982E-1
8.675584375E0,-7.661995478E-3,1.207628250E0,1.597848982E-1
8.680548438E0,-3.298672382E-3,1.241993785E0,1.616524011E-1
8.685510938E0,-3.298672382E-3,1.241993785E0,1.616524011E-1
8.690475000E0,-4.537856148E-4,1.285731673E0,1.629439443E-1
8.695439063E0,-4.537856148E-4,1.285731673E0,1.629439443E-1
8.700400000E0,-1.064650831E-3,1.371357560E0,1.680403054E-1
8.705364063E0,-1.064650831E-3,1.371357560E0,1.680403054E-1
8.710326563E0,9.180432186E-3,1.440280557E0,1.737300754E-1
8.715290625E0,9.180432186E-3,1.440280557E0,1.737300754E-1
8.720253125E0,3.022910282E-2,1.448797822E0,1.764353365E-1
8.725217188E0,3.022910282E-2,1.448797822E0,1.764353365E-1
8.730179688E0,5.208062381E-2,1.422338605E0,1.775523424E-1
8.735142188E0,5.208062381E-2,1.422338605E0,1.775523424E-1
8.740106250E0,6.269222498E-2,1.359227538E0,1.728399545E-1
8.745068750E0,6.269222498E-2,1.359227538E0,1.728399545E-1
8.750032813E0,6.154030934E-2,1.423734903E0,1.804321408E-1
8.754995313E0,6.154030934E-2,1.423734903E0,1.804321408E-1
8.759959375E0,5.653121322E-2,1.545855522E0,1.933126599E-1
8.764921875E0,5.653121322E-2,1.545855522E0,1.933126599E-1
8.769884375E0,5.510004610E-2,1.637328267E0,2.035053968E-1
8.774848438E0,5.510004610E-2,1.637328267E0,2.035053968E-1
8.779810938E0,5.473352596E-2,1.692114115E0,2.068913281E-1
8.784775000E0,5.473352596E-2,1.692114115E0,2.068913281E-1
8.789737500E0,5.485569686E-2,1.736288428E0,2.077116370E-1
8.794701563E0,5.485569686E-2,1.736288428E0,2.077116370E-1
8.799664063E0,5.345943570E-2,1.785000563E0,2.106961459E-1
8.804626563E0,5.345943570E-2,1.785000563E0,2.106961459E-1
8.809590625E0,4.961971194E-2,1.868479729E0,2.101550996E-1
8.814553125E0,4.961971194E-2,1.868479729E0,2.101550996E-1
8.819517188E0,4.291764647E-2,2.000147343E0,2.084097713E-1
8.824479688E0,4.291764647E-2,2.000147343E0,2.084097713E-1
8.829443750E0,3.616322204E-2,2.115583420E0,2.068913281E-1
8.834406250E0,3.616322204E-2,2.115583420E0,2.068913281E-1
8.839368750E0,3.145083413E-2,2.240147591E0,2.167873383E-1
8.844332813E0,3.145083413E-2,2.240147591E0,2.167873383E-1
8.849295313E0,2.944370359E-2,2.265856266E0,2.254267186E-1
8.854259375E0,2.944370359E-2,2.265856266E0,2.254267186E-1
8.859221875E0,2.768092230E-2,2.360784769E0,2.440493852E-1
8.864184375E0,2.768092230E-2,2.360784769E0,2.440493852E-1
8.869150000E0,2.473131567E-2,2.343034744E0,2.499311417E-1
8.874112500E0,2.473131567E-2,2.343034744E0,2.499311417E-1
8.879075000E0,1.984439418E-2,2.415308714E0,2.608219981E-1
8.884037500E0,1.984439418E-2,2.415308714E0,2.608219981E-1
8.889001563E0,1.525417715E-2,2.457423687E0,2.713463306E-1
8.893964063E0,1.525417715E-2,2.457423687E0,2.713463306E-1
8.898926563E0,1.214749180E-2,2.356927633E0,2.773502767E-1
8.903890625E0,1.214749180E-2,2.356927633E0,2.773502767E-1
8.908853125E0,1.000073645E-2,2.261265993E0,2.889218032E-1
8.913817188E0,1.000073645E-2,2.261265993E0,2.889218032E-1
8.918779688E0,8.621926419E-3,2.229553461E0,2.983989418E-1
8.923743750E0,8.621926419E-3,2.229553461E0,2.983989418E-1
8.928706250E0,6.911503617E-3,2.226533890E0,3.002839088E-1
8.933668750E0,6.911503617E-3,2.226533890E0,3.002839088E-1
8.938632813E0,6.492624991E-3,2.242381573E0,2.984687686E-1
8.943595313E0,6.492624991E-3,2.242381573E0,2.984687686E-1
8.948559375E0,7.417649496E-3,2.324569225E0,3.018895984E-1
8.953521875E0,7.417649496E-3,2.324569225E0,3.018895984E-1
8.958485938E0,8.063420653E-3,2.430737495E0,3.065321743E-1
8.963448438E0,8.063420653E-3,2.430737495E0,3.065321743E-1
8.968410938E0,7.452555932E-3,2.495733500E0,3.070383072E-1
8.973375000E0,7.452555932E-3,2.495733500E0,3.070383072E-1
8.978339063E0,9.354964830E-3,2.599475861E0,3.129724264E-1
8.983301563E0,9.354964830E-3,2.599475861E0,3.129724264E-1
8.988264063E0,1.404990070E-2,2.741371155E0,3.240378201E-1
8.993228125E0,1.404990070E-2,2.741371155E0,3.240378201E-1
8.998190625E0,1.799434423E-2,2.850576401E0,3.311587572E-1
9.003154688E0,1.799434423E-2,2.850576401E0,3.311587572E-1
9.008117188E0,1.535889693E-2,2.932467222E0,3.357315361E-1
9.013079688E0,1.535889693E-2,2.932467222E0,3.357315361E-1
9.018043750E0,7.400196046E-3,3.015038729E0,3.401821256E-1
9.023006250E0,7.400196046E-3,3.015038729E0,3.401821256E-1
9.027970313E0,2.617993741E-4,3.069615364E0,3.406358957E-1
9.032932813E0,2.617993741E-4,3.069615364E0,3.406358957E-1
9.037895313E0,-2.478367416E-3,3.131661654E0,3.408453465E-1
9.042859375E0,-2.478367416E-3,3.131661654E0,3.408453465E-1
9.047821875E0,-3.682644805E-3,3.218945742E0,3.445454538E-1
9.052785938E0,-3.682644805E-3,3.218945742E0,3.445454538E-1
9.057748438E0,-8.587019518E-3,3.267657757E0,3.473205268E-1
9.062710938E0,-8.587019518E-3,3.267657757E0,3.473205268E-1
9.067675000E0,-1.429424621E-2,3.215175629E0,3.422765136E-1
9.072637500E0,-1.429424621E-2,3.215175629E0,3.422765136E-1
9.077601563E0,-2.291617356E-2,3.081815004E0,3.315950930E-1
9.082564063E0,-2.291617356E-2,3.081815004E0,3.315950930E-1
9.087528125E0,-3.755948693E-2,2.936306953E0,3.208962381E-1
9.092490625E0,-3.755948693E-2,2.936306953E0,3.208962381E-1
9.097453125E0,-5.454153940E-2,2.852374077E0,3.147352338E-1
9.102417188E0,-5.454153940E-2,2.852374077E0,3.147352338E-1
9.107379688E0,-6.729989499E-2,2.731527567E0,3.109129667E-1
9.112343750E0,-6.729989499E-2,2.731527567E0,3.109129667E-1
9.117306250E0,-7.316420227E-2,2.611082315E0,3.145606816E-1
9.122270313E0,-7.316420227E-2,2.611082315E0,3.145606816E-1
9.127232813E0,-7.401940972E-2,2.453688622E0,3.166550994E-1
9.132195313E0,-7.401940972E-2,2.453688622E0,3.166550994E-1
9.137159375E0,-7.031931728E-2,2.346507788E0,3.183829486E-1
9.142121875E0,-7.031931728E-2,2.346507788E0,3.183829486E-1
9.147085938E0,-6.195918843E-2,2.328688145E0,3.189065456E-1
9.152048438E0,-6.195918843E-2,2.328688145E0,3.189065456E-1
9.157010938E0,-5.342452973E-2,2.316784859E0,3.125884533E-1
9.161975000E0,-5.342452973E-2,2.316784859E0,3.125884533E-1
9.166939063E0,-4.555309191E-2,2.313189507E0,3.053627908E-1
9.171901563E0,-4.555309191E-2,2.313189507E0,3.053627908E-1
9.176864063E0,-3.874630854E-2,2.262505293E0,2.943148613E-1
9.181828125E0,-3.874630854E-2,2.262505293E0,2.943148613E-1
9.186790625E0,-3.293436393E-2,2.257077217E0,2.895850241E-1
9.191754688E0,-3.293436393E-2,2.257077217E0,2.895850241E-1
9.196717188E0,-2.940879762E-2,2.229518414E0,2.827258706E-1
9.201679688E0,-2.940879762E-2,2.229518414E0,2.827258706E-1
9.206643750E0,-2.926917188E-2,2.216987133E0,2.783451080E-1
9.211606250E0,-2.926917188E-2,2.216987133E0,2.783451080E-1
9.216570313E0,-2.930407785E-2,2.196671486E0,2.720968425E-1
9.221532813E0,-2.930407785E-2,2.196671486E0,2.720968425E-1
9.226496875E0,-2.659881860E-2,2.192307949E0,2.617644668E-1
9.231459375E0,-2.659881860E-2,2.192307949E0,2.617644668E-1
9.236421875E0,-2.195624262E-2,2.209988356E0,2.484476119E-1
9.241385938E0,-2.195624262E-2,2.209988356E0,2.484476119E-1
9.246348438E0,-1.731366664E-2,2.225190163E0,2.312561274E-1
9.251312500E0,-1.731366664E-2,2.225190163E0,2.312561274E-1
9.256275000E0,-1.483529899E-2,2.253307343E0,2.159146816E-1
9.261237500E0,-1.483529899E-2,2.253307343E0,2.159146816E-1
9.266201563E0,-1.438151300E-2,2.215084553E0,1.972396523E-1
9.271164063E0,-1.438151300E-2,2.215084553E0,1.972396523E-1
9.276128125E0,-1.057669520E-2,2.177507639E0,1.879021525E-1
9.281090625E0,-1.057669520E-2,2.177507639E0,1.879021525E-1
9.286054688E0,-4.066617228E-3,2.102039576E0,1.809208244E-1
9.291017188E0,-4.066617228E-3,2.102039576E0,1.809208244E-1
9.295979688E0,1.658062800E-3,1.999623775E0,1.743932962E-1
9.300943750E0,1.658062800E-3,1.999623775E0,1.743932962E-1
9.305906250E0,2.024581889E-3,1.891901970E0,1.677610427E-1
9.310870313E0,2.024581889E-3,1.891901970E0,1.677610427E-1
9.315832813E0,-1.134464052E-3,1.760583401E0,1.575159580E-1
9.320796875E0,-1.134464052E-3,1.760583401E0,1.575159580E-1
9.325759375E0,-3.787364578E-3,1.655462265E0,1.491383910E-1
9.330721875E0,-3.787364578E-3,1.655462265E0,1.491383910E-1
9.335685938E0,-3.700098023E-3,1.540270567E0,1.391551048E-1
9.340648438E0,-3.700098023E-3,1.540270567E0,1.391551048E-1
9.345612500E0,-3.263765713E-3,1.453405499E0,1.316676438E-1
9.350575000E0,-3.263765713E-3,1.453405499E0,1.316676438E-1
9.355539063E0,-7.731808349E-3,1.350570679E0,1.214051023E-1
9.360501563E0,-7.731808349E-3,1.350570679E0,1.214051023E-1
9.365465625E0,-1.951278187E-2,1.256270528E0,1.097812131E-1
9.370428125E0,-1.951278187E-2,1.256270528E0,1.097812131E-1
9.375390625E0,-3.267256171E-2,1.196266174E0,9.784315526E-2
9.380354688E0,-3.267256171E-2,1.196266174E0,9.784315526E-2
9.385317188E0,-4.120722413E-2,1.159945846E0,8.384561539E-2
9.390281250E0,-4.120722413E-2,1.159945846E0,8.384561539E-2
9.395243750E0,-4.026474431E-2,1.149334192E0,7.009242475E-2
9.400206250E0,-4.026474431E-2,1.149334192E0,7.009242475E-2
9.405170313E0,-3.335324302E-2,1.127447844E0,5.609488115E-2
9.410132813E0,-3.335324302E-2,1.127447844E0,5.609488115E-2
9.415096875E0,-2.651155181E-2,1.108737826E0,4.630358517E-2
9.420059375E0,-2.651155181E-2,1.108737826E0,4.630358517E-2
9.425023438E0,-2.188642882E-2,1.075402021E0,4.356341809E-2
9.429985938E0,-2.188642882E-2,1.075402021E0,4.356341809E-2
9.434948438E0,-1.872738265E-2,1.028923988E0,4.469788074E-2
9.439912500E0,-1.872738265E-2,1.028923988E0,4.469788074E-2
9.444875000E0,-1.572541706E-2,9.670520425E-1,4.806636646E-2
9.449839063E0,-1.572541706E-2,9.670520425E-1,4.806636646E-2
9.454801563E0,-1.176351868E-2,9.037314653E-1,5.136504024E-2
9.459765625E0,-1.176351868E-2,9.037314653E-1,5.136504024E-2
9.464728125E0,-8.150687441E-3,8.314748406E-1,5.010840297E-2
9.469690625E0,-8.150687441E-3,8.314748406E-1,5.010840297E-2
9.474653125E0,-6.108652335E-3,7.619060278E-1,4.776966199E-2
9.479617188E0,-6.108652335E-3,7.619060278E-1,4.776966199E-2
9.484581250E0,-3.804817796E-3,7.094239593E-1,4.675737023E-2
9.489543750E0,-3.804817796E-3,7.094239593E-1,4.675737023E-2
9.494506250E0,-1.221730490E-3,6.720215678E-1,4.399975017E-2
9.499468750E0,-1.221730490E-3,6.720215678E-1,4.399975017E-2
9.504432813E0,3.490658477E-3,6.376560330E-1,3.916518763E-2
9.509395313E0,3.490658477E-3,6.376560330E-1,3.916518763E-2
9.514359375E0,1.129228063E-2,5.856626630E-1,3.317870945E-2
9.519323438E0,1.129228063E-2,5.856626630E-1,3.317870945E-2
9.524285938E0,1.987930015E-2,5.402666926E-1,3.026400879E-2
9.529248438E0,1.987930015E-2,5.402666926E-1,3.026400879E-2
9.534210938E0,2.293362655E-2,4.993386865E-1,2.160717547E-2
9.539175000E0,2.293362655E-2,4.993386865E-1,2.160717547E-2
9.544137500E0,1.816887781E-2,4.683765471E-1,1.230457146E-2
9.549101563E0,1.816887781E-2,4.683765471E-1,1.230457146E-2
9.554064063E0,1.293289009E-2,4.290542901E-1,9.093165398E-3
9.559028125E0,1.293289009E-2,4.290542901E-1,9.093165398E-3
9.563990625E0,1.144936029E-2,3.876899779E-1,1.303760987E-2
9.568954688E0,1.144936029E-2,3.876899779E-1,1.303760987E-2
9.573917188E0,6.789330859E-3,3.194476068E-1,1.691224054E-2
9.578881250E0,6.789330859E-3,3.194476068E-1,1.691224054E-2
9.583843750E0,-1.692969352E-3,2.685887218E-1,2.089159191E-2
9.588806250E0,-1.692969352E-3,2.685887218E-1,2.089159191E-2
9.593770313E0,-1.027998887E-2,2.327222079E-1,2.049016580E-2
9.598732813E0,-1.027998887E-2,2.327222079E-1,2.049016580E-2
9.603696875E0,-1.851794310E-2,1.996133029E-1,2.445206232E-2
9.608659375E0,-1.851794310E-2,1.996133029E-1,2.445206232E-2
9.613621875E0,-2.644173801E-2,1.563640535E-1,4.029965401E-2
9.618584375E0,-2.644173801E-2,1.563640535E-1,4.029965401E-2
9.623548438E0,-2.975786291E-2,1.173908487E-1,6.325073540E-2
9.628510938E0,-2.975786291E-2,1.173908487E-1,6.325073540E-2
9.633475000E0,-2.853613347E-2,8.609709144E-2,7.824310660E-2
9.638439063E0,-2.853613347E-2,8.609709144E-2,7.824310660E-2
9.643401563E0,-2.432988957E-2,6.314601004E-2,8.363617957E-2
9.648364063E0,-2.432988957E-2,6.314601004E-2,8.363617957E-2
9.653328125E0,-2.049016580E-2,7.255333662E-2,8.538150787E-2
9.658290625E0,-2.049016580E-2,7.255333662E-2,8.538150787E-2
9.663253125E0,-1.802925020E-2,7.531096041E-2,8.103563637E-2
9.668217188E0,-1.802925020E-2,7.531096041E-2,8.103563637E-2
9.673179688E0,-1.542871073E-2,8.358381689E-2,7.679449022E-2
9.678143750E0,-1.542871073E-2,8.358381689E-2,7.679449022E-2
9.683106250E0,-1.225221157E-2,8.319984376E-2,7.246606797E-2
9.688068750E0,-1.225221157E-2,8.319984376E-2,7.246606797E-2
9.693032813E0,-9.424777701E-3,6.499606371E-2,6.754424423E-2
9.697995313E0,-9.424777701E-3,6.499606371E-2,6.754424423E-2
9.702959375E0,-6.143558770E-3,4.581489414E-2,6.297148019E-2
9.707923438E0,-6.143558770E-3,4.581489414E-2,6.297148019E-2
9.712885938E0,-5.375613924E-3,1.857030392E-2,5.778785050E-2
9.717848438E0,-5.375613924E-3,1.857030392E-2,5.778785050E-2
9.722810938E0,-8.098327555E-3,-1.692969352E-3,5.201081187E-2
9.727775000E0,-8.098327555E-3,-1.692969352E-3,5.201081187E-2
9.732737500E0,-9.965829551E-3,-1.752310619E-2,4.557054490E-2
9.737701563E0,-9.965829551E-3,-1.752310619E-2,4.557054490E-2
9.742664063E0,-9.145525284E-3,-3.993313387E-2,3.817034885E-2
9.747628125E0,-9.145525284E-3,-3.993313387E-2,3.817034885E-2
9.752590625E0,-2.129301662E-3,-1.371828746E-2,5.672320258E-3
9.757553125E0,-2.129301662E-3,-1.371828746E-2,5.672320258E-3
9.762517188E0,-1.457349956E-2,-9.913469851E-2,2.391101047E-2
9.767481250E0,-1.457349956E-2,-9.913469851E-2,2.391101047E-2
9.772443750E0,-1.485275198E-2,-1.145285070E-1,1.841322333E-2
9.777406250E0,-1.485275198E-2,-1.145285070E-1,1.841322333E-2
9.782368750E0,-1.106538717E-2,-1.063952744E-1,1.354375482E-2
9.787332813E0,-1.106538717E-2,-1.063952744E-1,1.354375482E-2
9.792295313E0,-6.405358203E-3,-9.927432984E-2,6.335545331E-3
9.797259375E0,-6.405358203E-3,-9.927432984E-2,6.335545331E-3
9.802221875E0,-4.415682983E-3,-1.100255549E-1,-2.286381321E-3
9.807185938E0,-4.415682983E-3,-1.100255549E-1,-2.286381321E-3
9.812148438E0,-4.782202188E-3,-1.186125726E-1,-9.424777701E-3
9.817110938E0,-4.782202188E-3,-1.186125726E-1,-9.424777701E-3
9.822075000E0,-5.096361507E-3,-1.230980754E-1,-1.268854365E-2
9.827037500E0,-5.096361507E-3,-1.230980754E-1,-1.268854365E-2
9.832001563E0,-3.996803891E-3,-1.185951233E-1,-1.228711754E-2
9.836964063E0,-3.996803891E-3,-1.185951233E-1,-1.228711754E-2
9.841928125E0,-2.722713631E-3,-1.239009202E-1,-1.321214251E-2
9.846890625E0,-2.722713631E-3,-1.239009202E-1,-1.321214251E-2
9.851853125E0,5.759586347E-4,-1.240056455E-1,-1.425934024E-2
9.856817188E0,5.759586347E-4,-1.240056455E-1,-1.425934024E-2
9.861779688E0,6.876597181E-3,-1.289274693E-1,-1.621410809E-2
9.866743750E0,6.876597181E-3,-1.289274693E-1,-1.621410809E-2
9.871706250E0,1.329940930E-2,-1.250528395E-1,-1.715658605E-2
9.876670313E0,1.329940930E-2,-1.250528395E-1,-1.715658605E-2
9.881632813E0,1.668534800E-2,-1.244245246E-1,-1.811651699E-2
