"Time (s)","Linear Acceleration x (m/s^2)","Linear Acceleration y (m/s^2)","Linear Acceleration z (m/s^2)"
0.000000000E0,-1.550000012E-1,6.759999990E-1,2.054100037E0
9.906250000E-3,-5.009999871E-2,8.450999856E-1,1.229099989E0
1.983281300E-2,1.304000020E-1,8.294999599E-1,3.319999948E-2
2.975937500E-2,8.419999480E-2,5.155000091E-1,-6.818000078E-1
3.968593800E-2,2.092999965E-1,3.375999928E-1,-8.792999983E-1
4.961250000E-2,1.712999940E-1,1.794999987E-1,-8.744999766E-1
5.953750000E-2,6.000000052E-3,5.509999767E-2,-7.329999804E-1
6.946562500E-2,-2.820999920E-1,1.999999949E-4,-3.877999783E-1
7.939062500E-2,-4.161999822E-1,3.139999881E-2,4.999999888E-3
8.931718800E-2,-5.465999842E-1,1.284999996E-1,8.829999715E-2
9.924375000E-2,-5.392000079E-1,1.656999886E-1,-2.489999868E-2
1.091703130E-1,-3.594999909E-1,1.624999940E-1,9.669999778E-2
1.190968750E-1,-1.542000026E-1,2.184000015E-1,2.692999840E-1
1.290218750E-1,1.809999906E-2,2.428999990E-1,4.840999842E-1
1.389484380E-1,1.053999960E-1,2.743999958E-1,5.054000020E-1
1.488750000E-1,2.125999928E-1,2.143999934E-1,2.630999982E-1
1.588015630E-1,2.751999795E-1,2.818000019E-1,-9.619999677E-2
1.687281250E-1,1.507999897E-1,2.300999910E-1,-8.989999443E-2
1.786546880E-1,1.357000023E-1,2.651000023E-1,9.849999845E-2
1.885812500E-1,8.929999918E-2,2.653000057E-1,4.100000020E-3
1.985062500E-1,2.199999988E-2,2.020999938E-1,8.179999888E-2
2.084328130E-1,1.689999923E-2,1.966999918E-1,9.369999915E-2
2.183593750E-1,3.539999947E-2,2.060000002E-1,-6.119999662E-2
2.282859380E-1,8.349999785E-2,2.316999882E-1,9.899999946E-3
2.382125000E-1,2.258999944E-1,2.900999784E-1,6.189999729E-2
2.481390630E-1,1.666999906E-1,2.109999955E-1,8.779999614E-2
2.580640630E-1,6.769999862E-2,2.698000073E-1,1.349999905E-1
2.679906250E-1,1.769999973E-2,2.662000060E-1,1.817999929E-1
2.779171880E-1,-1.669999957E-2,2.422999889E-1,1.131999940E-1
2.878437500E-1,-4.259999841E-2,2.987000048E-1,1.644999981E-1
2.977703130E-1,-1.463000029E-1,3.271999955E-1,1.815999895E-1
3.076968750E-1,-2.291999906E-1,3.823999763E-1,6.809999794E-2
3.176234380E-1,-2.128999978E-1,4.151999950E-1,3.889999911E-2
3.275500000E-1,-1.700999886E-1,4.365999997E-1,-6.030000001E-2
3.374750000E-1,-1.586000025E-1,3.718999922E-1,7.689999789E-2
3.474015630E-1,-7.429999858E-2,4.902999997E-1,1.019999981E-1
3.573281250E-1,5.649999902E-2,4.312999845E-1,7.549999654E-2
3.672546880E-1,1.212999970E-1,3.470000029E-1,-8.739999682E-2
3.771812500E-1,1.144999936E-1,3.129999936E-1,-1.155999973E-1
3.871078130E-1,9.470000118E-2,2.339999974E-1,-1.163999960E-1
3.970328130E-1,7.339999825E-2,2.426999956E-1,-1.057999954E-1
4.069593750E-1,-1.919999905E-2,3.166999817E-1,1.202999949E-1
4.168859380E-1,-1.371999979E-1,2.782999873E-1,9.009999782E-2
4.268125000E-1,-1.360999942E-1,2.976999879E-1,-6.000000052E-3
4.367390630E-1,-1.142999977E-1,2.960000038E-1,-1.229999959E-1
4.466656250E-1,-8.940000087E-2,3.265999854E-1,-7.220000029E-2
4.565906250E-1,-3.219999745E-2,3.482999802E-1,1.816999912E-1
4.665171880E-1,4.910000041E-2,3.822000027E-1,3.348999918E-1
4.764437500E-1,6.079999730E-2,3.481999934E-1,2.146999985E-1
4.863703130E-1,7.819999754E-2,4.151999950E-1,1.367999911E-1
4.962968750E-1,1.211999953E-1,3.792999983E-1,-5.429999903E-2
5.062234380E-1,7.800000161E-2,4.136999846E-1,-1.211999953E-1
5.161500000E-1,2.329999954E-1,2.863000035E-1,-6.629999727E-2
5.260750000E-1,7.009999454E-2,4.095000029E-1,7.499999553E-2
5.360015630E-1,-4.629999772E-2,4.056999981E-1,8.159999549E-2
5.459281250E-1,-1.034999937E-1,4.317999780E-1,-3.749999776E-2
5.558546880E-1,-1.709999889E-1,4.092999995E-1,-1.071999967E-1
5.657812500E-1,-1.763999909E-1,3.177999854E-1,-1.573999971E-1
5.757062500E-1,-1.920999885E-1,2.529999912E-1,-1.621000022E-1
5.856343750E-1,-1.821999997E-1,2.892999947E-1,-9.699999355E-3
5.955609380E-1,-1.899999939E-2,2.303999960E-1,6.439999491E-2
6.054859380E-1,1.121999994E-1,2.010999918E-1,9.409999847E-2
6.154125000E-1,2.712000012E-1,2.265999913E-1,3.777000010E-1
6.253390630E-1,-4.539999738E-2,5.302000046E-1,9.689999819E-1
6.352656250E-1,2.423999906E-1,8.134999871E-1,9.975000024E-1
6.451921880E-1,2.330999970E-1,7.116000056E-1,7.014999986E-1
6.551187500E-1,-1.730000041E-2,7.825999856E-1,2.676800013E0
6.650453130E-1,4.053999782E-1,8.621000051E-1,8.859999776E-1
6.749718750E-1,6.035000086E-1,1.080600023E0,-8.234999776E-1
6.848968750E-1,1.215000004E-1,1.025799990E0,-1.515599966E0
6.948234380E-1,-3.172999918E-1,9.632999897E-1,-1.450099945E0
7.047500000E-1,-4.626999795E-1,7.285999656E-1,-5.155000091E-1
7.146765630E-1,-3.757999837E-1,6.660999656E-1,1.173999980E-1
7.246031250E-1,-1.717000008E-1,5.819999576E-1,2.586999834E-1
7.345296880E-1,2.759999968E-2,5.934999585E-1,3.564999998E-1
7.444546880E-1,5.909999833E-2,4.338999987E-1,2.443999946E-1
7.543812500E-1,1.850000024E-1,3.023000062E-1,1.899999916E-3
7.643062500E-1,1.840000004E-1,1.735000014E-1,-9.380000085E-2
7.742343750E-1,1.700999886E-1,1.477999985E-1,6.439999491E-2
7.841609380E-1,1.920000017E-1,1.256999969E-1,2.830999792E-1
7.940875000E-1,1.635999978E-1,-1.899999916E-3,2.791000009E-1
8.040125000E-1,1.793999970E-1,2.009999938E-2,9.719999880E-2
8.139390630E-1,2.208999991E-1,6.689999998E-2,-1.943999976E-1
8.238640630E-1,6.729999930E-2,5.449999869E-2,-2.719999850E-1
8.337906250E-1,-4.729999974E-2,7.970000058E-2,-2.275999933E-1
8.437171880E-1,-2.789999917E-2,4.289999977E-2,-1.758999974E-1
8.536453130E-1,-2.080000006E-2,-2.209999971E-2,-1.665999889E-1
8.635718750E-1,1.150000002E-2,-3.409999982E-2,-1.887999922E-1
8.734968750E-1,5.700000003E-2,6.570000201E-2,-1.211999953E-1
8.834234380E-1,2.759999968E-2,5.040000007E-2,-6.430000067E-2
8.933484380E-1,7.799999788E-3,5.299999844E-3,-8.429999650E-2
9.032765630E-1,3.260000050E-2,8.219999820E-2,2.609999850E-2
9.132031250E-1,-7.360000163E-2,1.022999957E-1,7.449999452E-2
9.231281250E-1,-1.715999991E-1,1.013999954E-1,6.179999933E-2
9.330546880E-1,-5.350000039E-2,1.296000034E-1,2.699999837E-3
9.429812500E-1,-1.500000013E-3,1.499999911E-1,-3.700000001E-3
9.529062500E-1,-3.399999812E-3,1.336999983E-1,1.687999964E-1
9.628328130E-1,8.129999787E-2,1.486999989E-1,1.924999952E-1
9.727609380E-1,1.191999987E-1,5.900000036E-2,1.771999896E-1
9.826859380E-1,1.182999983E-1,1.682000011E-1,1.603000015E-1
9.926125000E-1,1.471000016E-1,1.647000015E-1,2.044999897E-1
1.002540625E0,1.371999979E-1,1.884000003E-1,1.920999885E-1
1.012465625E0,1.013000011E-1,1.645999998E-1,2.198999971E-1
1.022392188E0,9.999999776E-3,2.301999927E-1,2.629999816E-1
1.032318750E0,1.009999961E-2,2.935000062E-1,1.473999918E-1
1.042243750E0,-8.069999516E-2,3.446999788E-1,-1.819999889E-2
1.052170313E0,-8.379999548E-2,3.919000030E-1,-4.039999843E-2
1.062096875E0,-1.384000033E-1,4.411999881E-1,-7.549999654E-2
1.072023438E0,-2.001999915E-1,4.824999869E-1,-1.118000001E-1
1.081950000E0,-4.144999981E-1,5.661000013E-1,-2.201999873E-1
1.091875000E0,-5.731999874E-1,6.155999899E-1,-1.862999946E-1
1.101801563E0,-5.388999581E-1,5.515999794E-1,-1.539999992E-1
1.111728125E0,-4.214999974E-1,5.619999766E-1,-1.286000013E-1
1.121654688E0,-2.717999816E-1,4.696999788E-1,-1.516000032E-1
1.131581250E0,-1.720999926E-1,4.035999775E-1,-3.529999778E-2
1.141507813E0,-2.345999926E-1,4.404999912E-1,1.916999966E-1
1.151434375E0,-1.599999964E-1,5.314999819E-1,4.352999926E-1
1.161359375E0,2.319999970E-2,4.178999960E-1,4.325999916E-1
1.171287500E0,2.286999971E-1,3.378999829E-1,4.305000007E-1
1.181214063E0,3.946999907E-1,3.610000014E-1,2.342999876E-1
1.191139063E0,4.083999991E-1,2.707999945E-1,1.568999887E-1
1.201065625E0,4.371999800E-1,2.500999868E-1,4.749999940E-2
1.210992188E0,3.468999863E-1,1.841000021E-1,-1.551000029E-1
1.220918750E0,1.943999976E-1,1.197999939E-1,-2.827000022E-1
1.230843750E0,7.620000094E-2,8.109999448E-2,-4.170999825E-1
1.240770313E0,1.169999968E-2,7.939999551E-2,-3.610000014E-1
1.250696875E0,-3.759999946E-2,1.229999959E-1,-9.459999949E-2
1.260623438E0,3.709999844E-2,2.221999913E-1,4.349999875E-2
1.270550000E0,8.889999986E-2,2.197999954E-1,1.287000030E-1
1.280476563E0,-1.197999939E-1,3.692999780E-1,5.019999743E-1
1.290401563E0,-1.567000002E-1,3.901000023E-1,5.242999792E-1
1.300328125E0,-1.632999927E-1,4.028999805E-1,1.633999944E-1
1.310254688E0,-9.049999714E-2,4.323000014E-1,-2.807999849E-1
1.320181250E0,-8.599999361E-3,3.559999764E-1,-4.813999832E-1
1.330107813E0,-3.109999932E-2,3.120000064E-1,-2.031999975E-1
1.340034375E0,-9.889999777E-2,3.912999928E-1,2.737999856E-1
1.349959375E0,-1.967999935E-1,3.709000051E-1,3.536999822E-1
1.359885938E0,-1.116999984E-1,2.184999883E-1,8.619999886E-2
1.369812500E0,-7.739999890E-2,1.711999923E-1,-3.114999831E-1
1.379739063E0,-1.433999985E-1,1.841000021E-1,-4.819999933E-1
1.389665625E0,-1.451999992E-1,1.982999891E-1,-3.932999969E-1
1.399592188E0,-1.140000001E-1,6.969999522E-2,-5.460000038E-2
1.409518750E0,-5.900000036E-2,1.152999997E-1,1.723999977E-1
1.419445313E0,5.299999937E-2,6.889999658E-2,2.208999991E-1
1.429370313E0,4.910000041E-2,1.259000003E-1,2.867999971E-1
1.439296875E0,4.999999655E-4,1.253999919E-1,1.305999905E-1
1.449223438E0,1.919999905E-2,1.812999994E-1,1.125999987E-1
1.459150000E0,-5.279999971E-2,8.509999514E-2,-6.269999593E-2
1.469076563E0,-7.039999962E-2,5.609999970E-2,-1.066999957E-1
1.479003125E0,-2.469999902E-2,8.240000159E-2,-6.949999928E-2
1.488928125E0,-8.200000040E-3,5.089999735E-2,-2.639999986E-2
1.498854688E0,8.599999547E-2,-2.139999904E-2,-9.300000034E-3
1.508781250E0,2.393999994E-1,8.219999820E-2,-1.549999975E-2
1.518707813E0,2.162999958E-1,3.139999881E-2,5.869999900E-2
1.528634375E0,9.319999814E-2,7.100000046E-3,2.717999816E-1
1.538560938E0,7.739999890E-2,1.204999983E-1,2.231999934E-1
1.548485938E0,1.873999983E-1,1.430999935E-1,2.730000019E-2
1.558412500E0,1.662999988E-1,9.109999985E-2,4.409999773E-2
1.568339063E0,-8.100000210E-3,2.513000071E-1,2.733999789E-1
1.578265625E0,-2.421000004E-1,3.966999948E-1,2.929999828E-1
1.588192188E0,-3.443999887E-1,4.548999965E-1,2.610999942E-1
1.598118750E0,-2.724999785E-1,4.453999996E-1,1.899999939E-2
1.608045313E0,-1.709000021E-1,4.053999782E-1,-3.152000010E-1
1.617971875E0,-1.265999973E-1,3.897999823E-1,-4.590999782E-1
1.627896875E0,-1.999999949E-4,4.303999841E-1,-3.375000060E-1
1.637823438E0,1.239999942E-2,5.895999670E-1,-1.365000010E-1
1.647750000E0,-6.999999750E-4,6.069999933E-1,-9.699999355E-3
1.657676563E0,3.159999847E-2,5.504999757E-1,-5.590000004E-2
1.667603125E0,-4.299999680E-3,5.679999590E-1,3.509999812E-2
1.677529688E0,1.224999949E-1,4.990999997E-1,1.339000016E-1
1.687454688E0,1.252999902E-1,5.220000148E-1,3.270999789E-1
1.697381250E0,2.950000018E-2,5.245000124E-1,6.310999990E-1
1.707307813E0,-6.599999964E-3,5.453000069E-1,5.730999708E-1
1.717234375E0,-5.829999968E-2,5.018999577E-1,4.629999995E-1
1.727160938E0,-1.044999957E-1,4.100999832E-1,2.457999885E-1
1.737087500E0,-9.690000117E-2,5.633000135E-1,8.599999361E-3
1.747012500E0,-2.050999999E-1,4.760999978E-1,-7.259999961E-2
1.756939063E0,-3.303999901E-1,4.608999789E-1,-1.599999964E-1
1.766865625E0,-4.511999786E-1,5.507000089E-1,-1.817999929E-1
1.776792188E0,-3.868999779E-1,6.488999724E-1,-2.383999974E-1
1.786718750E0,-2.166000009E-1,6.157000065E-1,-1.706999987E-1
1.796643750E0,-1.422999948E-1,5.654999614E-1,-4.600000009E-2
1.806571875E0,-4.949999973E-2,5.437999964E-1,4.900000058E-3
1.816496875E0,1.179999951E-2,5.489000082E-1,8.100000024E-2
1.826423438E0,8.720000088E-2,5.291000009E-1,2.458999902E-1
1.836350000E0,2.284999937E-1,4.048999846E-1,3.763999939E-1
1.846276563E0,3.458999991E-1,3.795999885E-1,4.456000030E-1
1.856203125E0,4.228999913E-1,3.841999769E-1,2.908999920E-1
1.866128125E0,5.688999891E-1,3.179000020E-1,7.459999621E-2
1.876054688E0,5.299000144E-1,8.119999617E-2,-1.109999940E-1
1.885981250E0,3.384999931E-1,1.597999930E-1,-1.279999968E-2
1.895907813E0,1.582999974E-1,3.193999827E-1,1.796000004E-1
1.905834375E0,-1.779999956E-2,3.233999908E-1,1.704999954E-1
1.915759375E0,-6.619999558E-2,3.208000064E-1,1.880999953E-1
1.925685938E0,-2.953999937E-1,5.691999793E-1,4.639999941E-2
1.935614063E0,-5.180999637E-1,7.195000052E-1,-1.158000007E-1
1.945540625E0,-4.601999819E-1,7.148000002E-1,-2.197999954E-1
1.955467188E0,-3.813000023E-1,6.994000077E-1,-2.802000046E-1
1.965392188E0,-3.474999964E-1,6.917999983E-1,-3.835999966E-1
1.975317188E0,-3.646999896E-1,6.779999733E-1,-4.588999748E-1
1.985243750E0,-2.538999915E-1,5.296999812E-1,-4.391999841E-1
1.995171875E0,-1.469999999E-1,4.077999890E-1,-2.041999996E-1
2.005098438E0,-2.089999989E-2,3.384000063E-1,2.339999937E-2
2.015025000E0,1.105000004E-1,2.213999927E-1,3.312000036E-1
2.024950000E0,1.727999896E-1,1.621999890E-1,3.703999817E-1
2.034876563E0,2.017999887E-1,9.609999508E-2,2.906000018E-1
2.044801563E0,1.400000006E-1,3.669999912E-2,4.165999889E-1
2.054728125E0,-9.699999355E-3,8.929999918E-2,6.232999563E-1
2.064654688E0,-4.710000008E-2,1.787000000E-1,6.714999676E-1
2.074581250E0,3.489999846E-2,1.595000029E-1,3.804000020E-1
2.084507813E0,1.177999973E-1,9.309999645E-2,-4.889999703E-2
2.094434375E0,2.465000004E-1,1.131999940E-1,-3.436999917E-1
2.104359375E0,2.259999961E-1,9.699999541E-2,-5.146999955E-1
2.114287500E0,1.035999954E-1,6.109999865E-2,-4.453999996E-1
2.124214063E0,-1.096000001E-1,1.809999943E-1,-2.242999971E-1
2.134139063E0,-1.162999943E-1,1.979999989E-1,6.269999593E-2
2.144067188E0,-2.359999903E-2,2.228999883E-1,1.254999936E-1
2.153992188E0,6.700000167E-2,2.219999880E-1,3.999999899E-4
2.163918750E0,2.284999937E-1,3.109999895E-1,3.399999812E-3
2.173845313E0,1.513999999E-1,2.124999911E-1,-2.850000001E-2
2.183771875E0,1.234999970E-1,3.006999791E-1,1.545999944E-1
2.193698438E0,8.569999784E-2,3.595999777E-1,4.869999886E-1
2.203623438E0,1.819999889E-2,4.321999848E-1,6.517999768E-1
2.213550000E0,2.449999936E-2,4.196999967E-1,4.758999944E-1
2.223476563E0,1.440999955E-1,3.925999999E-1,1.001999974E-1
2.233403125E0,1.539999992E-1,2.754999995E-1,-1.917999983E-1
2.243329688E0,7.869999856E-2,2.708999813E-1,-2.036999911E-1
2.253256250E0,1.326999962E-1,1.981000006E-1,-3.533999920E-1
2.263182813E0,1.513999999E-1,2.453999966E-1,-1.951999962E-1
2.273109375E0,1.123999953E-1,2.094999999E-1,1.142999977E-1
2.283034375E0,3.709999844E-2,2.770999968E-1,4.222999811E-1
2.292960938E0,-1.070000008E-1,2.818999887E-1,4.948000014E-1
2.302887500E0,-1.536999941E-1,3.193999827E-1,2.122999877E-1
2.312814063E0,-1.750999987E-1,2.791999876E-1,-1.433999985E-1
2.322739063E0,-1.694999933E-1,4.016000032E-1,-2.712000012E-1
2.332667188E0,-1.586999893E-1,3.958999813E-1,-1.851999909E-1
2.342593750E0,-1.515000015E-1,3.161000013E-1,-1.325999945E-1
2.352518750E0,-1.934999973E-1,3.594000041E-1,-7.119999826E-2
2.362445313E0,-2.522999942E-1,4.122000039E-1,-5.899999756E-3
2.372370313E0,-2.563000023E-1,3.743000031E-1,7.310000062E-2
2.382298438E0,-1.034999937E-1,3.015999794E-1,-1.011999995E-1
2.392225000E0,5.299999937E-2,1.873999983E-1,-1.850000024E-1
2.402150000E0,7.609999925E-2,1.348000020E-1,-6.199999899E-2
2.412078125E0,1.615999937E-1,1.624999940E-1,1.243999973E-1
2.422003125E0,1.847999990E-1,1.180000007E-1,1.140000001E-1
2.431929688E0,2.960000038E-1,-2.359999903E-2,-7.789999992E-2
2.441854688E0,1.717000008E-1,3.489999846E-2,-9.669999778E-2
2.451781250E0,3.299999982E-2,1.272999942E-1,1.275999993E-1
2.461709375E0,-9.809999913E-2,1.797000021E-1,2.267999947E-1
2.471635938E0,-1.788000017E-1,2.351000011E-1,2.739999890E-1
2.481560938E0,-1.017000005E-1,3.215000033E-1,7.849999517E-2
2.491487500E0,-6.030000001E-2,3.100000024E-1,-6.499999668E-3
2.501414063E0,-1.017999947E-1,3.256999850E-1,1.057999954E-1
2.511339063E0,-1.375000030E-1,3.506999910E-1,1.743000001E-1
2.521265625E0,-1.202999949E-1,4.346999824E-1,2.516999841E-1
2.531192188E0,-1.188999936E-1,4.299999774E-1,4.199999943E-2
2.541118750E0,-7.100000046E-3,4.034000039E-1,-6.669999659E-2
2.551045313E0,7.599999662E-3,4.078999758E-1,-1.455999911E-1
2.560971875E0,6.000000052E-3,3.507999778E-1,-9.030000120E-2
2.570896875E0,4.099999741E-2,3.134999871E-1,7.009999454E-2
2.580823438E0,4.820000008E-2,4.013999999E-1,2.013999969E-1
2.590750000E0,1.262999922E-1,3.465999961E-1,2.317999899E-1
2.600676563E0,8.679999411E-2,3.321000040E-1,9.089999646E-2
2.610603125E0,-6.359999627E-2,3.191999793E-1,7.289999723E-2
2.620529688E0,-1.067999974E-1,3.070999980E-1,-1.363999993E-1
2.630456250E0,-5.299999937E-2,2.520000041E-1,-1.140000001E-1
2.640382813E0,8.509999514E-2,2.106999904E-1,-1.766999960E-1
2.650307813E0,2.361999899E-1,1.321000010E-1,-1.275999993E-1
2.660234375E0,2.760999799E-1,5.900000036E-2,1.595999897E-1
2.670160938E0,2.566999793E-1,1.604999900E-1,2.046999931E-1
2.680087500E0,9.359999746E-2,2.574000061E-1,2.897999883E-1
2.690014063E0,-9.149999917E-2,3.395999968E-1,2.263000011E-1
2.699940625E0,-2.743999958E-1,3.418999910E-1,8.439999819E-2
2.709867188E0,-3.181999922E-1,4.495999813E-1,-5.359999835E-2
2.719792188E0,-3.495999873E-1,5.302999616E-1,-2.307999879E-1
2.729718750E0,-2.976999879E-1,4.881999791E-1,-2.838999927E-1
2.739645313E0,-2.390999943E-1,4.323000014E-1,-4.062999785E-1
2.749571875E0,-4.969999939E-2,3.304999769E-1,-2.233999968E-1
2.759498438E0,1.950999945E-1,2.804999948E-1,-3.500000015E-2
2.769425000E0,2.718999982E-1,3.136000037E-1,1.563999951E-1
2.779350000E0,3.739999831E-1,2.151999921E-1,3.795000017E-1
2.789276563E0,3.443999887E-1,1.697999984E-1,5.397999883E-1
2.799203125E0,2.863000035E-1,2.267999947E-1,6.681999564E-1
2.809129688E0,2.470999956E-1,2.437999994E-1,5.460999608E-1
2.819056250E0,2.239999920E-1,3.058999777E-1,4.247999787E-1
2.828982813E0,1.879999973E-2,3.355000019E-1,1.243999973E-1
2.838909375E0,-2.107999921E-1,3.470999897E-1,-2.496999949E-1
2.848834375E0,-2.384999990E-1,3.765999973E-1,-5.676999688E-1
2.858760938E0,-3.109999895E-1,3.452000022E-1,-6.396999955E-1
2.868687500E0,-2.881999910E-1,3.871999979E-1,-3.377999961E-1
2.878614063E0,-1.900999993E-1,3.555999994E-1,-6.799999624E-3
2.888540625E0,-9.499999881E-2,4.079999924E-1,2.653999925E-1
2.898467188E0,-6.679999828E-2,3.947999775E-1,3.213999867E-1
2.908393750E0,2.950000018E-2,3.899999857E-1,2.946999967E-1
2.918318750E0,1.105999947E-1,3.947999775E-1,2.307999879E-1
2.928245313E0,1.019999981E-1,4.363999963E-1,1.807999909E-1
2.938171875E0,1.472999901E-1,4.668999910E-1,2.409999967E-1
2.948098438E0,1.030999944E-1,4.447000027E-1,1.421999931E-1
2.958025000E0,-2.489999868E-2,4.390999973E-1,8.529999852E-2
2.967950000E0,-3.429999948E-2,4.008999765E-1,1.030000020E-2
2.977876563E0,-5.379999802E-2,3.898999989E-1,-2.190000005E-2
2.987803125E0,-8.219999820E-2,3.384000063E-1,-1.902999878E-1
2.997729688E0,-6.359999627E-2,3.043999970E-1,-2.410999984E-1
3.007656250E0,4.279999807E-2,2.561999857E-1,-3.249000013E-1
3.017582813E0,1.999999862E-3,2.114999890E-1,-1.964000016E-1
3.027509375E0,2.229999937E-2,1.317999959E-1,-1.429999992E-2
3.037434375E0,-4.600000102E-3,1.699000001E-1,2.005999982E-1
3.047360938E0,-6.309999526E-2,1.344999969E-1,2.360000014E-1
3.057287500E0,2.909999900E-2,9.549999982E-2,1.920000017E-1
3.067214063E0,-2.369999886E-2,1.252999902E-1,1.037999988E-1
3.077140625E0,-6.939999759E-2,2.094999999E-1,-2.479999885E-2
3.087067188E0,-1.525000036E-1,1.886999905E-1,-9.799999744E-2
3.096992188E0,-2.775000036E-1,2.251999974E-1,-8.339999616E-2
3.106918750E0,-1.662999988E-1,2.624000013E-1,-7.699999958E-3
3.116845313E0,-1.201999933E-1,2.985000014E-1,-3.619999811E-2
3.126771875E0,-7.409999520E-2,3.281999826E-1,2.699999884E-2
3.136698438E0,-1.809999906E-2,3.396999836E-1,5.839999765E-2
3.146623438E0,-4.499999806E-3,4.194999933E-1,1.127999946E-1
3.156551563E0,4.299999774E-2,4.230999947E-1,2.163999975E-1
3.166478125E0,1.064999998E-1,3.555999994E-1,4.609999806E-2
3.176404688E0,2.745999992E-1,3.441999853E-1,3.700000048E-2
3.186329688E0,3.895999789E-1,3.093000054E-1,2.450999916E-1
3.196256250E0,2.549999952E-1,4.302999973E-1,4.472999871E-1
3.206182813E0,1.178999990E-1,4.752999842E-1,4.664999843E-1
3.216109375E0,-8.129999787E-2,4.866999984E-1,3.096999824E-1
3.226034375E0,-7.849999517E-2,4.427999854E-1,-9.999999747E-5
3.235960938E0,-1.516999900E-1,5.083000064E-1,-2.378999889E-1
3.245887500E0,-6.749999523E-2,4.075999856E-1,-4.323000014E-1
3.255814063E0,-5.139999837E-2,3.313999772E-1,-3.838000000E-1
3.265740625E0,-6.350000203E-2,2.676999867E-1,-2.435999960E-1
3.275665625E0,-5.629999936E-2,2.236000001E-1,-4.099999741E-2
3.285593750E0,-4.429999739E-2,2.707999945E-1,2.803999782E-1
3.295518750E0,6.960000098E-2,2.675999999E-1,2.926999927E-1
3.305445313E0,1.234999970E-1,1.861999929E-1,1.156999990E-1
3.315371875E0,1.621999890E-1,1.825999916E-1,-5.899999756E-3
3.325296875E0,1.304000020E-1,1.579999924E-1,-3.610000014E-2
3.335225000E0,3.749999776E-2,2.041999996E-1,-2.559999935E-2
3.345151563E0,-9.569999576E-2,3.017999828E-1,1.453000009E-1
3.355078125E0,-2.044999897E-1,3.843999803E-1,2.026000023E-1
3.365003125E0,-2.836000025E-1,3.691000044E-1,8.729999512E-2
3.374929688E0,-1.909999996E-1,3.393999934E-1,-9.640000015E-2
3.384856250E0,-1.697999984E-1,3.436000049E-1,1.999999949E-4
3.394782813E0,-9.510000050E-2,4.423999786E-1,5.240000039E-2
3.404709375E0,-3.959999979E-2,3.691999912E-1,-1.730000041E-2
3.414635938E0,5.329999700E-2,3.486000001E-1,-2.004999965E-1
3.424562500E0,1.507000029E-1,3.225999773E-1,-1.479000002E-1
3.434489063E0,1.612999886E-1,2.563000023E-1,-1.449999958E-2
3.444414063E0,2.140000015E-1,2.730999887E-1,2.426999956E-1
3.454340625E0,1.701999903E-1,2.231999934E-1,1.753999889E-1
3.464267188E0,1.748999953E-1,2.114999890E-1,1.792999953E-1
3.474192188E0,1.218999997E-1,1.794999987E-1,4.259999841E-2
3.484118750E0,-7.149999589E-2,1.973999888E-1,9.019999951E-2
3.494045313E0,-1.268000007E-1,1.994999945E-1,9.399999678E-2
3.503971875E0,-6.430000067E-2,2.133999914E-1,8.439999819E-2
3.513898438E0,-1.341999918E-1,1.662999988E-1,6.140000001E-2
3.523825000E0,-1.199999973E-1,2.061000019E-1,-7.539999485E-2
3.533751563E0,-1.821999997E-1,2.331999987E-1,-6.169999763E-2
3.543676563E0,-2.251999974E-1,2.737999856E-1,-2.230999917E-1
3.553603125E0,-1.096000001E-1,2.960000038E-1,-1.290999949E-1
3.563531250E0,-4.319999740E-2,3.290999830E-1,-1.519999932E-2
3.573456250E0,3.929999843E-2,3.098999858E-1,1.562999934E-1
3.583382813E0,7.000000030E-2,3.294999897E-1,1.826999933E-1
3.593307813E0,6.199999899E-2,4.232999980E-1,1.832000017E-1
3.603234375E0,-3.799999878E-2,3.410999775E-1,1.024999991E-1
3.613160938E0,-7.029999793E-2,4.640999734E-1,7.059999555E-2
3.623087500E0,-1.439999975E-2,4.742999971E-1,3.749999776E-2
3.633014063E0,6.960000098E-2,4.990999997E-1,-8.779999614E-2
3.642940625E0,1.253999919E-1,4.569999874E-1,4.699999839E-2
3.652867188E0,5.399999768E-2,3.989000022E-1,1.709000021E-1
3.662793750E0,-3.119999915E-2,4.892999828E-1,1.983999908E-1
3.672718750E0,-8.599999547E-2,4.914999902E-1,1.314999908E-1
3.682645313E0,-1.995999962E-1,4.467999935E-1,-2.909999900E-2
3.692573438E0,-1.251000017E-1,3.841999769E-1,-2.140999883E-1
3.702498438E0,-6.979999691E-2,3.668999970E-1,-1.621999890E-1
3.712425000E0,3.739999980E-2,2.511999905E-1,-6.169999763E-2
3.722350000E0,1.333999932E-1,3.252999783E-1,1.290999949E-1
3.732278125E0,1.856999993E-1,2.757999897E-1,2.399999946E-1
3.742204688E0,2.098999918E-1,3.574000001E-1,1.437000036E-1
3.752129688E0,1.282999963E-1,3.225999773E-1,8.410000056E-2
3.762057813E0,4.769999906E-2,3.201999962E-1,1.376999915E-1
3.771982813E0,-6.340000033E-2,3.754999936E-1,1.586999893E-1
3.781909375E0,-6.359999627E-2,4.481999874E-1,1.780999899E-1
3.791834375E0,-1.379999965E-1,4.242999852E-1,1.127999946E-1
3.801760938E0,-1.820999980E-1,4.298000038E-1,5.249999836E-2
3.811687500E0,-6.689999998E-2,4.466999769E-1,-9.869999439E-2
3.821614063E0,-1.289999951E-2,3.996999860E-1,-1.666999906E-1
3.831540625E0,6.780000031E-2,3.032000065E-1,-9.380000085E-2
3.841467188E0,5.729999766E-2,2.848999798E-1,-5.920000002E-2
3.851392188E0,1.124999970E-1,3.574999869E-1,9.649999440E-2
3.861318750E0,7.270000130E-2,4.021999836E-1,3.398000002E-1
3.871245313E0,6.219999865E-2,4.105999768E-1,2.418999970E-1
3.881171875E0,1.146999970E-1,3.984999955E-1,1.534999907E-1
3.891098438E0,1.801999956E-1,2.942999899E-1,-8.039999753E-2
3.901025000E0,1.448999941E-1,1.648999900E-1,-2.030999959E-1
3.910951563E0,-2.109999955E-2,2.020999938E-1,-2.034000009E-1
3.920878125E0,-9.969999641E-2,2.423999906E-1,-5.549999699E-2
3.930803125E0,-2.166000009E-1,2.523999810E-1,-3.779999912E-2
3.940729688E0,-1.020999998E-1,2.556999922E-1,-6.920000166E-2
3.950656250E0,-1.215999946E-1,2.811999917E-1,-5.929999799E-2
3.960582813E0,-5.449999869E-2,3.188000023E-1,-2.939999849E-2
3.970509375E0,-7.569999993E-2,3.265999854E-1,3.649999946E-2
3.980435938E0,-7.469999790E-2,3.267999887E-1,1.068999991E-1
3.990360938E0,-2.679999918E-2,2.723000050E-1,1.695999950E-1
4.000287500E0,-2.549999952E-2,3.194999993E-1,2.557999790E-1
4.010214063E0,-1.850000024E-2,3.488999903E-1,2.343999892E-1
4.020140625E0,-3.059999831E-2,3.111999929E-1,2.239999920E-1
4.030067188E0,6.769999862E-2,4.064999819E-1,7.899999619E-2
4.039993750E0,5.219999701E-2,3.698000014E-1,-2.999999933E-2
4.049920313E0,3.549999744E-2,2.773000002E-1,-1.197999939E-1
4.059846875E0,4.839999974E-2,3.418000042E-1,-2.379999869E-2
4.069771875E0,7.360000163E-2,2.969999909E-1,4.250000045E-2
4.079698438E0,-1.019999944E-2,3.134000003E-1,3.729999810E-2
4.089625000E0,8.100000210E-3,2.223999947E-1,-1.979999989E-2
4.099551563E0,1.388999969E-1,2.401999980E-1,-5.799999833E-2
4.109478125E0,1.324999928E-1,1.272999942E-1,-1.173999980E-1
4.119404688E0,1.865999997E-1,7.180000097E-2,-1.201999933E-1
4.129329688E0,2.113999873E-1,7.719999552E-2,-4.580000043E-2
4.139256250E0,6.099999696E-2,9.839999676E-2,1.362999976E-1
4.149182813E0,8.669999987E-2,1.137999967E-1,2.328999937E-1
4.159109375E0,5.020000041E-2,1.421999931E-1,2.073999941E-1
4.169035938E0,7.289999723E-2,1.422999948E-1,1.165999994E-1
4.178962500E0,-4.969999939E-2,2.538999915E-1,-7.270000130E-2
4.188889063E0,-1.295000017E-1,2.927999794E-1,-4.479999840E-2
4.198814063E0,-1.824999899E-1,3.856999874E-1,-2.589999884E-2
4.208740625E0,-1.890999973E-1,4.795999825E-1,8.339999616E-2
4.218667188E0,-1.226999983E-1,4.657000005E-1,6.870000064E-2
4.228593750E0,-1.115999967E-1,5.157999992E-1,7.800000161E-2
4.238520313E0,-1.085999981E-1,4.676999748E-1,7.129999995E-2
4.248446875E0,-1.233999953E-1,5.491999984E-1,1.101999953E-1
4.258373438E0,-6.059999764E-2,5.703999996E-1,1.208999977E-1
4.268298438E0,-8.669999987E-2,5.072999597E-1,1.911999881E-1
4.278225000E0,1.640000008E-2,4.866999984E-1,2.750000060E-1
4.288151563E0,1.179999951E-2,5.196999907E-1,3.492999971E-1
4.298078125E0,-3.299999982E-3,4.906999767E-1,1.929000020E-1
4.308004688E0,5.299999937E-2,3.863999844E-1,-6.709999591E-2
4.317929688E0,2.769999951E-2,2.939999998E-1,-2.001999915E-1
4.327856250E0,-2.819999866E-2,2.788999975E-1,-3.544999957E-1
4.337782813E0,5.199999735E-2,2.590999901E-1,-2.610000074E-1
4.347709375E0,9.499999881E-2,2.331999987E-1,-1.246999949E-1
4.357635938E0,8.029999584E-2,1.671999991E-1,5.359999835E-2
4.367562500E0,5.549999699E-2,1.463999897E-1,1.807999909E-1
4.377489063E0,1.136000007E-1,9.829999506E-2,1.339999959E-2
4.387415625E0,9.669999778E-2,1.194999963E-1,-2.989999950E-2
4.397342188E0,3.429999948E-2,2.022999972E-1,7.039999962E-2
4.407267188E0,-3.399999812E-2,2.371999919E-1,2.006999999E-1
4.417193750E0,-6.700000167E-2,3.026999831E-1,3.137999773E-1
4.427120313E0,-7.119999826E-2,3.270999789E-1,4.989999905E-2
4.437046875E0,-1.036999971E-1,3.725999892E-1,3.070000000E-2
4.446973438E0,-1.053999960E-1,4.831999838E-1,1.399999950E-3
4.456900000E0,-1.728999913E-1,5.234999657E-1,9.529999644E-2
4.466825000E0,-4.729999974E-2,4.495999813E-1,3.949999809E-2
4.476751563E0,-1.559999958E-2,4.017999768E-1,5.359999835E-2
4.486678125E0,6.459999830E-2,3.748999834E-1,1.233999953E-1
4.496604688E0,1.050999984E-1,3.440999985E-1,-3.570000082E-2
4.506531250E0,7.809999585E-2,3.416000009E-1,3.700000048E-2
4.516457813E0,7.189999521E-2,2.834999859E-1,4.869999737E-2
4.526382813E0,3.599999845E-2,3.235999942E-1,7.050000131E-2
4.536309375E0,-4.019999877E-2,4.000999928E-1,7.440000027E-2
4.546235938E0,-1.709999889E-1,4.529999793E-1,1.062999964E-1
4.556162500E0,-3.217000067E-1,4.900999963E-1,-6.729999930E-2
4.566089063E0,-2.714000046E-1,4.174000025E-1,-1.288999915E-1
4.576015625E0,-1.721999943E-1,4.285999835E-1,-2.527000010E-1
4.585940625E0,-2.969999984E-2,3.538999856E-1,-1.260000020E-1
4.595867188E0,3.639999777E-2,3.457999825E-1,-5.399999768E-2
4.605793750E0,3.143999875E-1,1.829999983E-1,9.959999472E-2
4.615720313E0,3.786999881E-1,1.533000022E-1,2.881999910E-1
4.625646875E0,4.211999774E-1,1.556999981E-1,4.541999996E-1
4.635573438E0,3.960999846E-1,1.199999973E-1,5.550999641E-1
4.645500000E0,2.662000060E-1,1.287999898E-1,2.960000038E-1
4.655426563E0,1.307999939E-1,1.198999956E-1,-1.319999993E-2
4.665351563E0,-9.070000052E-2,1.336999983E-1,-2.707999945E-1
4.675278125E0,-2.215999961E-1,1.521999985E-1,-2.796999812E-1
4.685204688E0,-3.134000003E-1,2.272000015E-1,-1.921999902E-1
4.695131250E0,-2.300999910E-1,3.059999943E-1,-8.689999580E-2
4.705057813E0,-2.083999962E-1,3.224000037E-1,-4.989999905E-2
4.714984375E0,-1.142999977E-1,3.464999795E-1,-1.889999956E-2
4.724910938E0,-3.570000082E-2,3.158999979E-1,6.239999831E-2
4.734835938E0,-2.129999921E-2,4.456000030E-1,1.635999978E-1
4.744762500E0,4.449999705E-2,4.784999788E-1,1.754999906E-1
4.754689063E0,2.309999987E-2,4.271000028E-1,2.245999873E-1
4.764614063E0,-3.590000048E-2,4.740999937E-1,1.565999985E-1
4.774540625E0,1.499999966E-2,4.711999893E-1,1.360999942E-1
4.784468750E0,3.749999776E-2,3.986999989E-1,1.425999999E-1
4.794393750E0,8.100000210E-3,4.573999941E-1,2.355999947E-1
4.804320313E0,-1.699999906E-3,4.903999865E-1,1.146999970E-1
4.814246875E0,1.869999990E-2,4.709999859E-1,-1.539999992E-2
4.824171875E0,-4.499999806E-3,5.164999962E-1,-9.070000052E-2
4.834100000E0,3.869999945E-2,5.134999752E-1,7.100000046E-3
4.844025000E0,-8.339999616E-2,3.493999839E-1,2.620000020E-2
4.853951563E0,-6.599999964E-3,3.704999983E-1,-6.279999763E-2
4.863878125E0,-7.999999798E-4,3.340999782E-1,-1.002999991E-1
4.873803125E0,3.299999982E-2,2.675999999E-1,-1.897999942E-1
4.883731250E0,3.709999844E-2,2.492999882E-1,-9.290000051E-2
4.893657813E0,-4.879999906E-2,2.967999876E-1,2.040999979E-1
4.903582813E0,-1.595999897E-1,2.814999819E-1,2.588999867E-1
4.913509375E0,-1.312000006E-1,2.594999969E-1,2.242999971E-1
4.923435938E0,-9.380000085E-2,3.466999829E-1,6.639999896E-2
4.933362500E0,4.829999804E-2,3.050000072E-1,-1.249999925E-2
4.943289063E0,1.215000004E-1,2.060000002E-1,-3.579999879E-2
4.953214063E0,1.349000037E-1,2.409999967E-1,-1.129999943E-2
4.963140625E0,1.269000024E-1,1.685999930E-1,3.979999945E-2
4.973067188E0,5.989999697E-2,1.561999917E-1,-2.279999852E-2
4.982993750E0,1.699999906E-3,2.089999914E-1,-1.442999989E-1
4.992920313E0,4.339999706E-2,2.617999911E-1,-1.164999977E-1
5.002846875E0,-3.399999812E-3,2.577999830E-1,-1.480000000E-2
5.012771875E0,-3.299999982E-2,2.653999925E-1,1.206999943E-1
5.022698438E0,-4.109999910E-2,3.757999837E-1,2.369999886E-1
5.032625000E0,-3.799999831E-3,3.746999800E-1,2.463999987E-1
5.042551563E0,-7.149999589E-2,3.384000063E-1,2.588000000E-1
5.052478125E0,-4.089999944E-2,3.114999831E-1,1.837999970E-1
5.062404688E0,-6.729999930E-2,3.120999932E-1,1.447999924E-1
5.072329688E0,-2.449999936E-2,2.809999883E-1,1.138999984E-1
5.082256250E0,-3.299999982E-3,2.619999945E-1,-6.539999694E-2
5.092182813E0,-4.849999771E-2,2.547999918E-1,-1.655000001E-1
5.102109375E0,-5.659999698E-2,2.152999938E-1,-1.955000013E-1
5.112035938E0,-6.839999557E-2,2.406999916E-1,-2.150999904E-1
5.121962500E0,-6.889999658E-2,2.379999906E-1,-8.769999444E-2
5.131889063E0,1.096000001E-1,2.874999940E-1,-5.329999700E-2
5.141814063E0,2.009999901E-1,1.829999983E-1,-3.409999982E-2
5.151740625E0,1.964999884E-1,2.198999971E-1,6.830000132E-2
5.161667188E0,1.589999944E-1,1.548999995E-1,1.525000036E-1
5.171593750E0,3.709999844E-2,2.681999803E-1,1.982000023E-1
5.181520313E0,-6.999999750E-3,2.868999839E-1,2.184000015E-1
5.191446875E0,2.499999851E-2,2.656999826E-1,9.899999946E-2
5.201373438E0,1.139999926E-2,2.615000010E-1,3.839999810E-2
5.211298438E0,-5.529999733E-2,3.446999788E-1,1.111999974E-1
5.221225000E0,-9.119999409E-2,3.297999799E-1,1.451999992E-1
5.231151563E0,-1.333999932E-1,3.905999959E-1,1.207999960E-1
5.241078125E0,-3.240000084E-2,4.443999827E-1,1.372999996E-1
5.251004688E0,-5.759999901E-2,3.610999882E-1,7.499999553E-2
5.260931250E0,-1.539999992E-2,3.924999833E-1,5.319999903E-2
5.270857813E0,-1.999999955E-2,4.104000032E-1,1.539999992E-2
5.280782813E0,-5.959999934E-2,4.089999795E-1,1.509999949E-2
5.290709375E0,-1.797000021E-1,4.560000002E-1,4.179999977E-2
5.300635938E0,-1.367999911E-1,4.943999946E-1,8.069999516E-2
5.310562500E0,-1.850000024E-2,3.928000033E-1,-1.869999990E-2
5.320489063E0,1.579999924E-2,3.980000019E-1,-7.199999690E-2
5.330415625E0,7.829999924E-2,4.262999892E-1,7.339999825E-2
5.340342188E0,2.449999936E-2,4.339999855E-1,7.429999858E-2
5.350267188E0,-7.400000002E-3,3.756999969E-1,1.754999906E-1
5.360193750E0,-5.200000014E-3,4.072999954E-1,1.005999967E-1
5.370120313E0,1.260000002E-2,4.398999810E-1,2.869999968E-2
5.380046875E0,1.079999954E-1,3.529999852E-1,7.609999925E-2
5.389973438E0,1.511999965E-1,3.430999815E-1,1.439999975E-2
5.399900000E0,1.832999885E-1,2.901999950E-1,8.299999870E-3
5.409825000E0,8.729999512E-2,3.131999969E-1,1.715999991E-1
5.419751563E0,2.809999883E-2,3.021000028E-1,2.251999974E-1
5.429678125E0,9.399999864E-3,2.795000076E-1,1.837999970E-1
5.439604688E0,4.509999976E-2,2.166000009E-1,4.179999977E-2
5.449531250E0,4.129999876E-2,2.921999991E-1,2.960000001E-2
5.459457813E0,-4.120000079E-2,3.225999773E-1,2.339999937E-2
5.469384375E0,-1.084999964E-1,3.524999917E-1,-1.274999976E-1
5.479309375E0,-1.963000000E-1,3.147999942E-1,-3.185999990E-1
5.489235938E0,-1.984999925E-1,2.604999840E-1,-2.645999789E-1
5.499162500E0,-1.222999990E-1,2.963999808E-1,-1.245999932E-1
5.509089063E0,-1.502999961E-1,3.488000035E-1,1.513999999E-1
5.519015625E0,-1.508999914E-1,3.421999812E-1,3.060999811E-1
5.528942188E0,-1.237999946E-1,3.132999837E-1,2.277999967E-1
5.538867188E0,-4.380000010E-2,4.212999940E-1,1.219999939E-1
5.548795313E0,1.219999939E-1,4.078999758E-1,-1.019999944E-2
5.558720313E0,1.881999969E-1,3.905999959E-1,7.180000097E-2
5.568646875E0,2.663999796E-1,3.228999972E-1,1.870999932E-1
5.578573438E0,2.038999945E-1,2.615999877E-1,3.549999744E-2
5.588498438E0,3.219999745E-2,2.721000016E-1,4.690000042E-2
5.598426563E0,-9.499999695E-3,2.683999836E-1,9.380000085E-2
5.608351563E0,-1.489999890E-1,3.459999859E-1,-2.749999985E-2
5.618278125E0,-1.010999978E-1,3.791999817E-1,-1.620000042E-2
5.628204688E0,-9.519999474E-2,3.969999850E-1,-1.099999994E-2
5.638131250E0,-1.066999957E-1,3.055999875E-1,-3.469999880E-2
5.648056250E0,-1.144999936E-1,2.422999889E-1,1.399999950E-2
5.657984375E0,3.649999946E-2,2.870000005E-1,-5.150000006E-2
5.667909375E0,1.059999987E-1,2.446999997E-1,-1.059999969E-2
5.677835938E0,2.058999985E-1,2.435999960E-1,7.959999889E-2
5.687762500E0,2.019999921E-1,2.181999981E-1,2.005999982E-1
5.697689063E0,7.649999857E-2,2.448999882E-1,2.558999956E-1
5.707615625E0,9.969999641E-2,2.236000001E-1,1.031999961E-1
5.717542188E0,1.049999967E-1,1.360999942E-1,1.062999964E-1
5.727468750E0,3.099999949E-2,1.779999882E-1,1.771999896E-1
5.737395313E0,-1.221999973E-1,3.129999936E-1,1.596999913E-1
5.747320313E0,-1.163999960E-1,3.930999935E-1,7.959999889E-2
5.757246875E0,-1.392000020E-1,2.755999863E-1,-8.039999753E-2
5.767173438E0,-1.590999961E-1,3.486999869E-1,-1.286000013E-1
5.777098438E0,-1.856999993E-1,3.643999994E-1,-1.978999972E-1
5.787025000E0,-1.995999962E-1,2.601000071E-1,-2.223999947E-1
5.796951563E0,-7.970000058E-2,3.761999905E-1,-7.299999893E-2
5.806878125E0,-3.299999982E-2,4.066999853E-1,-5.609999970E-2
5.816804688E0,3.469999880E-2,3.553999960E-1,1.521999985E-1
5.826731250E0,1.098999977E-1,3.285999894E-1,2.141999900E-1
5.836657813E0,1.251000017E-1,2.879999876E-1,2.583000064E-1
5.846584375E0,1.785999984E-1,2.795000076E-1,2.874999940E-1
5.856509375E0,2.409999967E-1,2.500000000E-1,3.285999894E-1
5.866437500E0,2.108999938E-1,2.469999939E-1,2.370999902E-1
5.876362500E0,1.467999965E-1,2.795000076E-1,9.820000082E-2
5.886289063E0,3.649999946E-2,2.275999933E-1,-1.379999984E-2
5.896215625E0,-1.358000040E-1,3.254999816E-1,-6.129999831E-2
5.906140625E0,-1.506000012E-1,3.200999796E-1,-2.236000001E-1
5.916067188E0,-2.055999935E-1,3.240999877E-1,-1.454000026E-1
5.925993750E0,-5.829999968E-2,2.492999882E-1,-1.836999953E-1
5.935921875E0,8.599999547E-2,2.028999925E-1,5.979999900E-2
5.945846875E0,5.659999698E-2,2.137999982E-1,2.780999839E-1
5.955773438E0,7.869999856E-2,3.035999835E-1,3.213999867E-1
5.965698438E0,-8.169999719E-2,3.332999945E-1,1.897999942E-1
5.975625000E0,-1.252000034E-1,4.477999806E-1,1.699000001E-1
5.985553125E0,-1.586999893E-1,4.836999774E-1,1.589999907E-2
5.995479688E0,-2.129999995E-1,4.495999813E-1,-9.099999815E-2
6.005406250E0,-6.089999899E-2,4.351999760E-1,-2.249999940E-1
6.015331250E0,-4.859999940E-2,3.132999837E-1,-2.295999974E-1
6.025257813E0,6.000000052E-3,3.188000023E-1,-9.129999578E-2
6.035182813E0,1.429999992E-2,3.190999925E-1,1.730000041E-2
6.045109375E0,-1.789999940E-2,3.107999861E-1,-1.599999960E-3
6.055035938E0,8.909999579E-2,3.161999881E-1,-4.019999877E-2
6.064962500E0,1.174999997E-1,3.474999964E-1,1.252000034E-1
6.074890625E0,7.499999553E-2,4.007999897E-1,2.158999890E-1
6.084815625E0,-1.269999985E-2,3.771999776E-1,2.492999882E-1
6.094740625E0,-7.539999485E-2,4.360999763E-1,2.467999905E-1
6.104667188E0,-1.438999921E-1,4.878000021E-1,1.561999917E-1
6.114595313E0,-1.806999892E-1,4.984999895E-1,1.738999933E-1
6.124521875E0,-4.979999736E-2,4.957000017E-1,1.274999976E-1
6.134446875E0,1.139999926E-2,5.034999847E-1,-5.299999937E-2
6.144373438E0,7.229999453E-2,4.492999911E-1,-5.979999900E-2
6.154300000E0,1.036999971E-1,3.810999990E-1,1.191999987E-1
6.164225000E0,1.207999960E-1,3.876999915E-1,1.107999980E-1
6.174153125E0,9.200000018E-2,3.486000001E-1,1.832000017E-1
6.184078125E0,7.459999621E-2,3.561999798E-1,1.719999909E-1
6.194004688E0,7.199999876E-3,3.348999918E-1,8.280000091E-2
6.203932813E0,-7.310000062E-2,4.456999898E-1,1.052999943E-1
6.213857813E0,-5.189999938E-2,3.612000048E-1,7.379999757E-2
6.223784375E0,-4.479999840E-2,3.720999956E-1,6.830000132E-2
6.233710938E0,-1.409999933E-2,3.571999967E-1,-5.759999901E-2
6.243635938E0,3.869999945E-2,3.210999966E-1,-1.057999954E-1
6.253564063E0,4.349999875E-2,3.023999929E-1,-1.015999988E-1
6.263489063E0,6.699999794E-3,2.737999856E-1,-5.579999834E-2
6.273415625E0,6.859999895E-2,2.056999952E-1,-2.569999918E-2
6.283342188E0,-3.399999812E-3,2.314999998E-1,3.709999844E-2
6.293268750E0,-2.290000021E-2,2.483000010E-1,-2.099999925E-3
6.303193750E0,-1.899999939E-2,2.620999813E-1,-1.180000007E-1
6.313121875E0,2.630000003E-2,2.461999953E-1,-9.439999610E-2
6.323046875E0,-4.869999737E-2,2.423999906E-1,-1.559999958E-2
6.332973438E0,-1.083000004E-1,2.478999943E-1,2.899999917E-2
6.342901563E0,-2.039999887E-2,3.057999909E-1,1.247999966E-1
6.352826563E0,-5.049999803E-2,3.019999862E-1,1.888999939E-1
6.362751563E0,-1.239999942E-2,3.102999926E-1,1.894000024E-1
6.372679688E0,1.239999942E-2,3.574000001E-1,1.735000014E-1
6.382604688E0,8.499999531E-3,3.826999962E-1,6.520000100E-2
6.392531250E0,-5.599999800E-3,3.883999884E-1,9.640000015E-2
6.402457813E0,-4.140000045E-2,4.133999944E-1,1.597999930E-1
6.412384375E0,-4.369999841E-2,3.382999897E-1,1.101999953E-1
6.422310938E0,7.849999517E-2,3.509999812E-1,1.202999949E-1
6.432235938E0,8.940000087E-2,2.804999948E-1,-1.056999937E-1
6.442162500E0,4.319999740E-2,2.845000029E-1,-1.387999952E-1
6.452089063E0,-2.060000040E-2,2.911999822E-1,-2.114999890E-1
6.462015625E0,-6.000000052E-3,3.184999824E-1,-1.290999949E-1
6.471942188E0,-9.099999815E-2,3.385999799E-1,3.889999911E-2
6.481868750E0,-7.829999924E-2,2.795999944E-1,1.515000015E-1
6.491795313E0,-3.610000014E-2,3.213000000E-1,1.835999936E-1
6.501720313E0,4.809999838E-2,3.102000058E-1,1.993999928E-1
6.511646875E0,4.399999976E-2,2.796999812E-1,1.188999936E-1
6.521573438E0,1.319999993E-2,2.651999891E-1,4.339999706E-2
6.531500000E0,6.920000166E-2,2.755999863E-1,-2.199999988E-3
6.541426563E0,9.609999508E-2,2.252999991E-1,-2.569999918E-2
6.551353125E0,1.107999980E-1,3.237999976E-1,1.175999939E-1
6.561278125E0,1.139999926E-2,3.357999921E-1,1.511999965E-1
6.571204688E0,-1.329999976E-2,3.470000029E-1,7.369999588E-2
6.581131250E0,-1.156999990E-1,3.371999860E-1,-1.469999924E-2
6.591057813E0,-1.348000020E-1,3.878999949E-1,1.420000009E-2
6.600984375E0,-6.179999933E-2,3.346000016E-1,-4.399999976E-2
6.610910938E0,-9.499999695E-3,2.883999944E-1,-5.389999971E-2
6.620837500E0,8.439999819E-2,3.331999779E-1,1.499999966E-2
6.630762500E0,1.226999983E-1,2.845000029E-1,9.849999845E-2
6.640689063E0,8.889999986E-2,3.082000017E-1,2.352999896E-1
6.650615625E0,5.879999697E-2,3.089999855E-1,3.012000024E-1
6.660542188E0,4.050000012E-2,3.330999911E-1,2.599999905E-1
6.670468750E0,-3.999999724E-3,3.194999993E-1,2.149999887E-1
6.680395313E0,-1.086999997E-1,3.664999902E-1,1.310000010E-2
6.690320313E0,-1.394999921E-1,3.761000037E-1,-6.459999830E-2
6.700246875E0,-1.233999953E-1,3.378999829E-1,-1.503999978E-1
6.710173438E0,-1.372999996E-1,3.086999953E-1,-9.039999545E-2
6.720100000E0,-1.255999953E-1,2.809000015E-1,-2.349999994E-1
6.730026563E0,-3.229999915E-2,3.244999945E-1,-2.149000019E-1
6.739953125E0,-8.980000019E-2,2.658999860E-1,-5.909999833E-2
6.749879688E0,-1.184999943E-1,2.545999885E-1,1.196999997E-1
6.759804688E0,-8.429999650E-2,2.926999927E-1,1.668999940E-1
6.769731250E0,1.399999950E-3,2.933000028E-1,7.199999876E-3
6.779657813E0,5.229999870E-2,2.654999793E-1,-7.000000030E-2
6.789584375E0,1.475999951E-1,2.449999899E-1,-2.349999920E-2
6.799510938E0,2.504000068E-1,1.819999963E-1,5.810000002E-2
6.809437500E0,2.298999876E-1,1.592999995E-1,1.149999946E-1
6.819362500E0,9.829999506E-2,1.956999898E-1,2.520000041E-1
6.829289063E0,1.118999943E-1,2.472999990E-1,2.687000036E-1
6.839215625E0,6.030000001E-2,2.238999903E-1,2.818000019E-1
6.849142188E0,-1.169999968E-2,2.248999923E-1,9.690000117E-2
6.859068750E0,-4.910000041E-2,3.389999866E-1,-2.029999904E-2
6.868995313E0,-1.437000036E-1,3.454000056E-1,-1.180000007E-1
6.878920313E0,-1.966999918E-1,4.045999944E-1,-1.481999904E-1
6.888846875E0,-2.251999974E-1,3.912999928E-1,-1.066999957E-1
6.898773438E0,-1.318999976E-1,3.260000050E-1,2.359999903E-2
6.908700000E0,2.689999901E-2,4.032999873E-1,1.551999897E-1
6.918626563E0,5.399999674E-3,4.601999819E-1,3.310000002E-1
6.928553125E0,2.699999837E-3,4.231999815E-1,3.014000058E-1
6.938479688E0,-6.809999794E-2,4.163999856E-1,1.815000027E-1
6.948406250E0,-9.849999845E-2,4.592999816E-1,-6.459999830E-2
6.958331250E0,-5.119999871E-2,5.157999992E-1,-1.437999904E-1
6.968257813E0,-9.999999311E-4,5.755000114E-1,-6.639999896E-2
6.978184375E0,-7.699999958E-3,4.474999905E-1,2.533999979E-1
6.988110938E0,1.270000041E-1,4.210999906E-1,3.554999828E-1
6.998037500E0,2.467999905E-1,3.696999848E-1,2.291999906E-1
7.007962500E0,2.138999999E-1,3.386999965E-1,5.449999869E-2
7.017889063E0,2.025000006E-1,2.163999975E-1,-1.171000004E-1
7.027815625E0,1.788999885E-1,1.694999933E-1,-1.694999933E-1
7.037742188E0,1.058999971E-1,1.841999888E-1,-1.922999918E-1
7.047668750E0,1.339999959E-2,1.129999980E-1,-1.092999950E-1
7.057593750E0,2.859999985E-2,8.689999580E-2,7.899999619E-3
7.067521875E0,-2.039999887E-2,1.277000010E-1,1.851999909E-1
7.077446875E0,-3.619999811E-2,1.416999996E-1,1.744999886E-1
7.087373438E0,-4.900000058E-3,1.493999958E-1,1.127000004E-1
7.097300000E0,-9.919999540E-2,1.444000006E-1,-8.899999782E-3
7.107225000E0,-5.029999837E-2,1.657999903E-1,2.017000020E-1
7.117151563E0,-1.547999978E-1,2.624000013E-1,2.368999869E-1
7.127078125E0,-1.951999962E-1,3.445999920E-1,9.479999542E-2
7.137004688E0,-1.876000017E-1,3.788000047E-1,7.779999822E-2
7.146931250E0,-2.043000013E-1,4.034000039E-1,-4.369999841E-2
7.156857813E0,-1.273999959E-1,3.570999801E-1,-1.030999944E-1
7.166784375E0,-8.679999411E-2,3.689999878E-1,-7.999999798E-4
7.176710938E0,-7.059999555E-2,2.994000018E-1,8.150000125E-2
7.186637500E0,1.549999975E-2,2.893999815E-1,1.354999989E-1
7.196562500E0,2.209999971E-2,3.093000054E-1,7.409999520E-2
7.206490625E0,3.269999847E-2,2.784000039E-1,-7.569999993E-2
7.216415625E0,-1.109999977E-2,2.084999979E-1,-3.029999882E-2
7.226342188E0,-1.084999964E-1,1.824999899E-1,-9.690000117E-2
7.236268750E0,-1.230999976E-1,7.119999826E-2,-2.308999896E-1
7.246193750E0,8.799999952E-3,-3.999999724E-3,-3.021999896E-1
7.256121875E0,9.129999578E-2,-2.071999907E-1,-4.013999999E-1
7.266046875E0,1.585000008E-1,-3.533999920E-1,-3.206999898E-1
7.275973438E0,2.472999990E-1,-3.777999878E-1,-1.110999957E-1
7.285901563E0,2.036999911E-1,-4.246999919E-1,2.049999870E-2
7.295826563E0,9.259999543E-2,-4.727999866E-1,1.765999943E-1
7.305753125E0,2.779999934E-2,-4.064999819E-1,1.766999960E-1
7.315678125E0,-4.769999906E-2,-4.052999914E-1,1.254999936E-1
7.325604688E0,-7.840000093E-2,-3.643999994E-1,1.089999974E-1
7.335531250E0,-3.229999915E-2,-3.255999982E-1,8.899999782E-3
7.345457813E0,1.689999923E-2,-4.078999758E-1,4.600000102E-3
7.355384375E0,1.026000008E-1,-3.008999825E-1,1.266999990E-1
7.365310938E0,8.789999783E-2,-3.324999809E-1,6.409999728E-2
7.375237500E0,6.109999865E-2,-2.716000080E-1,-5.779999867E-2
7.385162500E0,3.649999946E-2,-2.453999966E-1,-2.421000004E-1
7.395089063E0,7.259999961E-2,-2.866999805E-1,-1.484999955E-1
7.405015625E0,2.719999850E-2,-1.495999992E-1,1.087999940E-1
7.414942188E0,4.470000044E-2,-1.506000012E-1,3.454000056E-1
7.424868750E0,9.499999695E-3,-1.600999981E-1,1.938000023E-1
7.434795313E0,-4.259999841E-2,5.739999935E-2,-1.399999950E-2
7.444721875E0,-7.689999789E-2,9.989999980E-2,-1.920000017E-1
7.454648438E0,-1.136999950E-1,1.316999942E-1,-2.374999970E-1
7.464573438E0,-1.999999881E-1,1.347000003E-1,-1.449999958E-1
7.474500000E0,-1.732999980E-1,1.370999962E-1,8.259999752E-2
7.484426563E0,-6.799999624E-2,6.359999627E-2,1.209999993E-2
7.494353125E0,3.949999809E-2,6.260000169E-2,1.999999862E-3
7.504279688E0,1.339000016E-1,1.529999916E-2,-9.999999747E-5
7.514204688E0,1.385999918E-1,-5.929999799E-2,3.830000013E-2
7.524131250E0,1.940999925E-1,-1.009999961E-1,1.500000013E-3
7.534059375E0,8.999999613E-2,-1.671999991E-1,2.419999987E-2
7.543984375E0,4.839999974E-2,-8.519999683E-2,2.190000005E-2
7.553912500E0,-7.719999552E-2,-2.309999987E-2,2.070000023E-2
7.563837500E0,-1.925999969E-1,1.549999975E-2,-6.599999964E-3
7.573764063E0,-2.194999903E-1,-5.249999836E-2,-3.079999983E-2
7.583689063E0,-2.016000003E-1,2.999999851E-4,-1.735999882E-1
7.593615625E0,-1.604000032E-1,2.159999870E-2,-2.142999917E-1
7.603543750E0,-1.228999943E-1,-3.159999847E-2,-5.959999934E-2
7.613468750E0,8.389999717E-2,-1.242999956E-1,-2.199999988E-2
7.623395313E0,2.310999930E-1,-1.105999947E-1,1.379999984E-2
7.633321875E0,3.194999993E-1,-1.718000025E-1,-1.379999984E-2
7.643248438E0,1.956999898E-1,-3.339000046E-1,4.769999906E-2
7.653173438E0,1.991999894E-1,-3.450999856E-1,1.801999956E-1
7.663101563E0,8.709999919E-2,-2.656999826E-1,1.598999947E-1
7.673026563E0,-1.000999957E-1,-2.842999995E-1,8.100000024E-2
7.682953125E0,-2.087000012E-1,-2.171999961E-1,-5.339999869E-2
7.692879688E0,-2.286999971E-1,-3.089999855E-1,-2.890999913E-1
7.702806250E0,-1.806999892E-1,-3.634999990E-1,-3.951999843E-1
7.712732813E0,-4.059999809E-2,-3.193999827E-1,-2.773000002E-1
7.722657813E0,-2.489999868E-2,-3.094999790E-1,-5.989999697E-2
7.732584375E0,4.389999807E-2,-2.263000011E-1,9.869999439E-2
7.742510938E0,9.939999878E-2,-1.842999905E-1,1.612999886E-1
7.752437500E0,9.769999981E-2,-2.906000018E-1,1.781999916E-1
7.762364063E0,1.704999954E-1,-1.937000006E-1,4.499999806E-3
7.772289063E0,1.004999951E-1,-2.448999882E-1,1.929999888E-2
7.782215625E0,-9.579999745E-2,-1.730999947E-1,-5.059999973E-2
7.792142188E0,-1.521999985E-1,-1.247999966E-1,-8.500000089E-2
7.802068750E0,-1.380999982E-1,-7.909999788E-2,-2.229999937E-2
7.811995313E0,-8.649999648E-2,-1.429999992E-2,-1.387999952E-1
7.821921875E0,4.279999807E-2,-3.059999831E-2,-1.092000008E-1
7.831848438E0,9.299999475E-2,3.139999881E-2,-1.014999971E-1
7.841775000E0,6.300000008E-3,-1.200000010E-2,-4.140000045E-2
7.851700000E0,2.569999918E-2,-5.040000007E-2,1.755999923E-1
7.861626563E0,-3.519999981E-2,2.759999968E-2,2.723000050E-1
7.871553125E0,9.499999695E-3,2.749999985E-2,1.752000004E-1
7.881479688E0,6.449999660E-2,1.339999959E-2,-6.819999963E-2
7.891406250E0,1.349999942E-2,-1.999999862E-3,-1.151999980E-1
7.901332813E0,4.099999741E-2,-3.269999847E-2,-5.879999697E-2
7.911259375E0,4.309999943E-2,-3.659999743E-2,3.419999778E-2
7.921184375E0,-3.700000048E-2,-6.989999861E-2,2.089999989E-2
7.931110938E0,-1.919999905E-2,-9.499999881E-2,-2.061000019E-1
7.941037500E0,-5.829999968E-2,5.799999926E-3,-2.157999873E-1
7.950964063E0,-3.269999847E-2,-5.139999837E-2,-1.730999947E-1
7.960890625E0,-1.048000008E-1,-7.000000030E-2,-8.150000125E-2
7.970817188E0,-6.689999998E-2,-1.942999959E-1,-3.599999938E-3
7.980743750E0,-2.939999849E-2,-1.252000034E-1,3.559999913E-2
7.990668750E0,4.329999909E-2,-9.950000048E-2,1.630999893E-1
8.000595313E0,9.649999440E-2,-1.662999988E-1,2.585999966E-1
8.010521875E0,5.109999701E-2,-1.165999994E-1,1.491999924E-1
8.020448438E0,-1.179999951E-2,-1.659999937E-1,4.360000044E-2
8.030375000E0,-7.039999962E-2,-1.898999959E-1,-1.199999973E-1
8.040301563E0,-1.108999997E-1,-1.525000036E-1,-1.835999936E-1
8.050226563E0,-7.829999924E-2,-2.377999872E-1,-1.314000040E-1
8.060153125E0,-4.739999771E-2,-2.150999904E-1,-1.164999977E-1
8.070079688E0,-2.469999902E-2,-2.210000008E-1,-7.609999925E-2
8.080006250E0,2.679999918E-2,-2.451999933E-1,-9.820000082E-2
8.089932813E0,2.357999980E-1,-2.390999943E-1,-6.260000169E-2
8.099859375E0,1.618999988E-1,-2.701999843E-1,9.499999695E-3
8.109784375E0,2.226999998E-1,-3.282999992E-1,4.199999943E-2
8.119710938E0,1.651999950E-1,-3.563999832E-1,6.999999750E-3
8.129637500E0,1.228999943E-1,-3.518999815E-1,-3.999999724E-3
8.139564063E0,1.147999987E-1,-3.849000037E-1,1.459999941E-2
8.149490625E0,-3.999999899E-4,-2.881000042E-1,1.166999936E-1
8.159417188E0,-4.759999737E-2,-2.989999950E-1,1.278000027E-1
8.169342188E0,-1.172999963E-1,-2.807999849E-1,5.199999735E-2
8.179268750E0,-1.723999977E-1,-2.692999840E-1,-1.407999992E-1
8.189195313E0,-1.796000004E-1,-2.450999916E-1,-2.683999836E-1
8.199121875E0,-2.219999880E-1,-2.456999868E-1,-2.491999865E-1
8.209048438E0,-1.350999922E-1,-3.067999780E-1,-1.988999993E-1
8.218975000E0,-1.049999967E-1,-3.197000027E-1,-1.992999911E-1
8.228900000E0,7.620000094E-2,-2.824999988E-1,-2.358999997E-1
8.238826563E0,9.059999883E-2,-3.779999912E-1,-1.618999988E-1
8.248753125E0,9.809999913E-2,-4.139999747E-1,-1.083000004E-1
8.258679688E0,-1.950000040E-2,-4.080999792E-1,-1.449999958E-2
8.268606250E0,-2.410000004E-2,-4.089999795E-1,2.950000018E-2
8.278532813E0,-6.199999899E-2,-4.434999824E-1,6.639999896E-2
8.288459375E0,-6.999999750E-4,-4.104999900E-1,6.000000052E-3
8.298384375E0,5.089999735E-2,-4.570999742E-1,-7.209999859E-2
8.308310938E0,6.469999999E-2,-5.644999743E-1,-8.980000019E-2
8.318237500E0,8.370000124E-2,-4.847999811E-1,-2.569999918E-2
8.328164063E0,5.119999871E-2,-5.802999735E-1,8.349999785E-2
8.338090625E0,9.849999845E-2,-5.669000149E-1,4.869999737E-2
8.348017188E0,1.119999960E-1,-6.038999557E-1,-9.129999578E-2
8.357943750E0,1.187999994E-1,-5.645999908E-1,-1.818999946E-1
8.367870313E0,-1.999999862E-3,-4.761999846E-1,-1.054999977E-1
8.377796875E0,-9.399999864E-3,-4.187999964E-1,-5.099999718E-3
8.387721875E0,-1.103999987E-1,-4.702999890E-1,-3.329999745E-2
8.397648438E0,-1.744999886E-1,-3.711999953E-1,-2.399999881E-3
8.407575000E0,-1.013999954E-1,-3.467999995E-1,1.699999906E-3
8.417500000E0,1.042999998E-1,-4.147000015E-1,-8.320000023E-2
8.427428125E0,1.706999987E-1,-5.250999928E-1,-1.225999966E-1
8.437353125E0,1.648999900E-1,-5.828999877E-1,-3.559999913E-2
8.447279688E0,1.259000003E-1,-6.104999781E-1,-1.090000011E-2
8.457206250E0,4.879999906E-2,-5.735999942E-1,-1.252999902E-1
8.467131250E0,7.199999876E-3,-6.438999772E-1,-1.574999988E-1
8.477057813E0,-7.799999788E-3,-6.653000116E-1,-1.894000024E-1
8.486984375E0,-1.299999952E-1,-6.507999897E-1,-1.494999975E-1
8.496910938E0,-1.041999981E-1,-5.972999930E-1,-7.589999586E-2
8.506837500E0,-1.378999949E-1,-5.852999687E-1,7.769999653E-2
8.516764063E0,-1.240999997E-1,-5.130999684E-1,5.570000038E-2
8.526689063E0,-6.179999933E-2,-4.594999850E-1,0.000000000E0
8.536615625E0,-3.879999742E-2,-4.749999940E-1,-5.979999900E-2
8.546542188E0,-8.540000021E-2,-5.033999681E-1,-1.793999970E-1
8.556468750E0,-2.929999866E-2,-4.963999987E-1,-1.136999950E-1
8.566395313E0,-5.909999833E-2,-5.196999907E-1,-1.262999922E-1
8.576321875E0,2.469999902E-2,-5.927999616E-1,-1.431999952E-1
8.586248438E0,1.151999980E-1,-6.333999634E-1,-1.459999941E-2
8.596173438E0,1.865999997E-1,-5.527999997E-1,4.369999841E-2
8.606100000E0,1.519999951E-1,-4.867999852E-1,2.017000020E-1
8.616026563E0,7.759999484E-2,-3.779000044E-1,1.894999892E-1
8.625953125E0,-7.279999554E-2,-3.364999890E-1,5.150000006E-2
8.635879688E0,-1.527999938E-1,-2.836000025E-1,-1.421999931E-1
8.645806250E0,-1.550000012E-1,-2.547999918E-1,-2.226999998E-1
8.655732813E0,-1.720999926E-1,-3.321000040E-1,-2.588000000E-1
8.665657813E0,-9.219999611E-2,-4.730999768E-1,-3.252999783E-1
8.675584375E0,1.563999951E-1,-5.467000008E-1,-2.946999967E-1
8.685510938E0,1.709999889E-1,-6.383999586E-1,-3.181999922E-1
8.695439063E0,2.657999992E-1,-8.756999969E-1,-2.543999851E-1
8.705364063E0,2.938999832E-1,-1.021199942E0,-1.318999976E-1
8.715290625E0,1.842999905E-1,-1.091799974E0,-3.199999779E-2
8.725217188E0,1.270000041E-1,-1.070099950E0,5.609999970E-2
8.735142188E0,1.999999949E-4,-9.932000041E-1,1.684999913E-1
8.745068750E0,-1.154999956E-1,-9.537999630E-1,1.388999969E-1
8.754995313E0,-1.730999947E-1,-8.373000026E-1,6.019999832E-2
8.764921875E0,-2.558999956E-1,-7.472999692E-1,-1.793999970E-1
8.774848438E0,-3.483999968E-1,-7.293999791E-1,-2.529000044E-1
8.784775000E0,-3.103999794E-1,-6.064000130E-1,-2.195999920E-1
8.794701563E0,-2.166999876E-1,-5.891999602E-1,-1.044999957E-1
8.804626563E0,-1.179999951E-2,-5.701999664E-1,1.519999932E-2
8.814553125E0,1.418000013E-1,-5.753999949E-1,1.185999960E-1
8.824479688E0,3.285999894E-1,-5.902000070E-1,1.603000015E-1
8.834406250E0,3.525999784E-1,-5.873000026E-1,1.999999949E-4
8.844332813E0,2.654999793E-1,-5.932999849E-1,-3.429999948E-2
8.854259375E0,1.270000041E-1,-6.105999947E-1,-1.348000020E-1
8.864184375E0,7.949999720E-2,-5.004999638E-1,-4.749999940E-2
8.874112500E0,-3.379999846E-2,-4.814999998E-1,-1.719999872E-2
8.884037500E0,-6.030000001E-2,-3.828999996E-1,-3.249999881E-2
8.893964063E0,5.559999868E-2,-3.601000011E-1,6.009999663E-2
8.903890625E0,1.999999862E-3,-2.549999952E-1,9.239999950E-2
8.913817188E0,-5.249999836E-2,-1.428999901E-1,6.499999762E-2
8.923743750E0,-5.309999734E-2,-1.502999961E-1,-2.309999987E-2
8.933668750E0,-1.281999946E-1,-5.439999700E-2,-1.854999959E-1
8.943595313E0,-2.125999928E-1,-1.185999960E-1,-1.500999928E-1
8.953521875E0,-2.895999849E-1,-4.659999907E-2,-9.779999405E-2
8.963448438E0,-2.671000063E-1,-1.769999973E-2,-2.336999923E-1
8.973375000E0,-1.746999919E-1,-1.310000010E-2,-9.290000051E-2
8.983301563E0,-1.179999951E-2,-6.099999882E-3,-1.284999996E-1
8.993228125E0,1.702999920E-1,-9.779999405E-2,-2.180000022E-2
9.003154688E0,1.860999912E-1,-1.187999994E-1,1.633999944E-1
9.013079688E0,1.406999975E-1,-6.269999593E-2,2.883000076E-1
9.023006250E0,1.656000018E-1,-3.739999980E-2,1.877999902E-1
9.032932813E0,1.377999932E-1,-1.517999917E-1,-1.155999973E-1
9.042859375E0,2.037999928E-1,-1.852999926E-1,-3.748999834E-1
9.052785938E0,2.434999943E-1,-2.681999803E-1,-2.016000003E-1
9.062710938E0,1.489000022E-1,-2.816999853E-1,3.549999744E-2
9.072637500E0,1.322999895E-1,-2.672999799E-1,3.544999957E-1
9.082564063E0,4.459999874E-2,-1.941999942E-1,4.210000038E-1
9.092490625E0,-4.699999839E-2,-1.235999987E-1,2.538999915E-1
9.102417188E0,-2.281999886E-1,2.559999935E-2,-1.399999950E-2
9.112343750E0,-2.921999991E-1,6.709999591E-2,-1.938000023E-1
9.122270313E0,-3.062999845E-1,6.870000064E-2,-1.823000014E-1
9.132195313E0,-2.666999996E-1,9.529999644E-2,-1.548999995E-1
9.142121875E0,-8.100000024E-2,1.009999961E-1,-1.958999932E-1
9.152048438E0,6.549999863E-2,1.222999990E-1,-9.209999442E-2
9.161975000E0,1.771999896E-1,8.929999918E-2,6.699999794E-3
9.171901563E0,2.444999963E-1,5.689999834E-2,4.609999806E-2
9.181828125E0,2.099999934E-1,4.789999872E-2,1.242999956E-1
9.191754688E0,-1.090000011E-2,1.374000013E-1,3.136999905E-1
9.201679688E0,-1.695999950E-1,1.802999973E-1,3.037999868E-1
9.211606250E0,-3.193999827E-1,2.043000013E-1,-2.609999850E-2
9.221532813E0,-2.345999926E-1,1.503999978E-1,-3.589999974E-1
9.231459375E0,-1.818999946E-1,2.018999904E-1,-3.556999862E-1
9.241385938E0,-1.327999979E-1,2.094999999E-1,-2.299999893E-1
9.251312500E0,-7.289999723E-2,1.677999943E-1,-8.630000055E-2
9.261237500E0,-7.750000060E-2,2.022999972E-1,7.939999551E-2
9.271164063E0,2.489999868E-2,2.435999960E-1,1.312000006E-1
9.281090625E0,3.390000015E-2,2.563000023E-1,1.080999970E-1
9.291017188E0,3.940000013E-2,2.687000036E-1,7.509999722E-2
9.300943750E0,3.889999911E-2,2.832999825E-1,1.457999945E-1
9.310870313E0,8.989999443E-2,3.680999875E-1,2.752999961E-1
9.320796875E0,6.849999726E-2,3.370999992E-1,2.823999822E-1
9.330721875E0,7.889999449E-2,3.648999929E-1,1.956999898E-1
9.340648438E0,5.989999697E-2,4.411000013E-1,8.109999448E-2
9.350575000E0,-4.600000009E-2,4.648000002E-1,8.499999531E-3
9.360501563E0,-6.799999624E-2,4.418999851E-1,-8.379999548E-2
9.370428125E0,2.809999883E-2,4.827999771E-1,-1.114000008E-1
9.380354688E0,4.969999939E-2,4.575999975E-1,9.899999946E-3
9.390281250E0,1.571999937E-1,3.838999867E-1,8.499999531E-3
9.400206250E0,1.740999967E-1,2.913999856E-1,3.669999912E-2
9.410132813E0,1.221999973E-1,3.021000028E-1,1.228000000E-1
9.420059375E0,1.185999960E-1,2.682999969E-1,1.555999964E-1
9.429985938E0,-9.499999695E-3,2.990999818E-1,3.839999810E-2
9.439912500E0,2.419999987E-2,2.114999890E-1,-3.419999778E-2
9.449839063E0,6.599999964E-3,2.188999951E-1,-1.312000006E-1
9.459765625E0,-9.989999980E-2,2.821999788E-1,-9.809999913E-2
9.469690625E0,-1.779000014E-1,2.964999974E-1,2.449999936E-2
9.479617188E0,-2.226999998E-1,3.306999803E-1,-4.679999873E-2
9.489543750E0,-1.879999936E-1,3.274999857E-1,-1.970000006E-2
9.499468750E0,-1.377999932E-1,2.465000004E-1,-1.261000037E-1
9.509395313E0,-6.539999694E-2,3.256999850E-1,3.949999809E-2
9.519323438E0,-2.190000005E-2,3.666999936E-1,1.983999908E-1
9.529248438E0,3.849999979E-2,3.254999816E-1,3.486000001E-1
9.539175000E0,1.175999939E-1,3.375000060E-1,4.301999807E-1
9.549101563E0,1.754999906E-1,4.484999776E-1,1.970999986E-1
9.559028125E0,1.581999958E-1,4.059999883E-1,-1.819999889E-2
9.568954688E0,2.052999884E-1,2.651000023E-1,-2.644000053E-1
9.578881250E0,1.574999988E-1,2.917000055E-1,-3.355999887E-1
9.588806250E0,1.463999897E-1,2.773999870E-1,-1.622999907E-1
9.598732813E0,-2.929999866E-2,3.691000044E-1,1.143999994E-1
9.608659375E0,6.799999624E-3,3.492999971E-1,2.489999980E-1
9.618584375E0,-6.140000001E-2,4.208999872E-1,1.700000018E-1
9.628510938E0,-1.072999984E-1,3.991999924E-1,1.466999948E-1
9.638439063E0,-9.349999577E-2,3.849999905E-1,2.809999883E-2
9.648364063E0,-8.479999751E-2,4.063999951E-1,4.129999876E-2
9.658290625E0,-1.225999966E-1,4.283999801E-1,1.692999899E-1
9.668217188E0,-1.092000008E-1,4.491999745E-1,4.449999705E-2
9.678143750E0,-7.159999758E-2,4.186999798E-1,6.899999920E-3
9.688068750E0,9.339999408E-2,2.705000043E-1,-5.329999700E-2
9.697995313E0,1.039000005E-1,3.069999814E-1,-7.069999725E-2
9.707923438E0,1.785999984E-1,2.365999967E-1,1.359999925E-1
9.717848438E0,1.020999998E-1,3.312999904E-1,3.082999885E-1
9.727775000E0,-2.300000051E-3,3.199000061E-1,2.457999885E-1
9.737701563E0,3.199999779E-2,4.364999831E-1,1.530999988E-1
9.747628125E0,-1.072999984E-1,3.902999759E-1,-1.420999914E-1
9.757553125E0,-9.089999646E-2,3.542000055E-1,-2.520000041E-1
9.767481250E0,-1.062999964E-1,3.885000050E-1,-2.664999962E-1
9.777406250E0,-1.295000017E-1,3.621000051E-1,-2.800999880E-1
9.787332813E0,-1.282999963E-1,4.593999982E-1,-1.509999949E-2
9.797259375E0,-1.026999950E-1,4.081999958E-1,1.515000015E-1
9.807185938E0,-1.406999975E-1,3.729999959E-1,2.698999941E-1
9.817110938E0,-3.669999912E-2,4.431999922E-1,1.879999973E-2
9.827037500E0,2.489999868E-2,4.449999928E-1,-1.039999947E-1
9.836964063E0,-5.439999700E-2,4.935999811E-1,-7.449999452E-2
9.846890625E0,-4.789999872E-2,5.123000145E-1,5.790000036E-2
9.856817188E0,2.080000006E-2,5.006999969E-1,2.361999899E-1
9.866743750E0,1.100999936E-1,4.781999886E-1,3.746999800E-1
9.876670313E0,1.862999946E-1,4.905999899E-1,3.810999990E-1
9.886595313E0,6.300000101E-2,4.727999866E-1,1.905999929E-1
9.896523438E0,1.280999929E-1,3.192999959E-1,-1.090999991E-1
9.906448438E0,6.419999897E-2,3.357000053E-1,-2.155999988E-1
9.916376563E0,2.449999936E-2,3.452000022E-1,-2.239999920E-1
9.926303125E0,-3.039999865E-2,3.043999970E-1,-9.579999745E-2
9.936228125E0,-2.099999925E-3,2.375999987E-1,1.799999923E-2
9.946153125E0,3.499999875E-3,2.255999893E-1,6.889999658E-2
9.956079688E0,-3.199999779E-2,1.315999925E-1,2.061000019E-1
9.966006250E0,-3.619999811E-2,2.175000012E-1,2.060000002E-1
9.975934375E0,-2.439999953E-2,1.696999967E-1,2.687999904E-1
9.985859375E0,-1.299999934E-2,2.669999897E-1,1.381999999E-1
9.995785938E0,-8.039999753E-2,2.257999927E-1,3.159999847E-2
1.000571250E1,-4.369999841E-2,2.830999792E-1,-1.224999949E-1
1.001563906E1,9.099999443E-3,2.377000004E-1,-2.029999942E-1
1.002556406E1,5.419999734E-2,2.768000066E-1,-1.230999976E-1
1.003549063E1,2.679999918E-2,2.383999974E-1,-1.048000008E-1
1.004541719E1,-1.164999977E-1,2.025000006E-1,-4.799999762E-3
1.005534375E1,-9.129999578E-2,2.277999967E-1,-3.209999949E-2
1.006527188E1,-1.453000009E-1,2.263999879E-1,-3.039999865E-2
1.007519688E1,-1.467999965E-1,2.554000020E-1,-1.399999950E-3
1.008512188E1,-2.259999886E-2,2.639999986E-1,-6.409999728E-2
1.009505000E1,8.100000210E-3,2.613999844E-1,-2.269999869E-2
1.010497500E1,1.867999882E-1,3.172000051E-1,-2.769999951E-2
1.011490156E1,1.878999919E-1,3.243999779E-1,2.449999936E-2
1.012482812E1,1.486999989E-1,3.253999949E-1,2.131000012E-1
1.013475469E1,2.280000001E-1,3.953000009E-1,5.109999776E-1
1.014468125E1,1.669999957E-1,4.122000039E-1,5.173000097E-1
1.015460625E1,1.544999927E-1,4.509999752E-1,3.219999969E-1
1.016453281E1,6.309999526E-2,4.217000008E-1,1.589999944E-1
1.017445938E1,-9.219999611E-2,5.045999885E-1,6.849999726E-2
1.018438750E1,-1.405999959E-1,5.109999776E-1,-8.029999584E-2
1.019431250E1,-2.065999955E-1,4.448999763E-1,-3.059999943E-1
1.020423906E1,-2.446999997E-1,4.422999918E-1,-4.615999758E-1
1.021416563E1,-2.397999913E-1,4.104000032E-1,-4.659999907E-1
1.022409219E1,-2.320999950E-1,3.933999836E-1,-2.664999962E-1
1.023401719E1,-1.176999956E-1,4.230999947E-1,-4.360000044E-2
1.024394375E1,-2.539999969E-2,3.431999981E-1,1.872999966E-1
1.025387031E1,1.196999997E-1,3.946000040E-1,2.515999973E-1
1.026379688E1,1.680999994E-1,3.925999999E-1,3.707000017E-1
1.027372344E1,1.728999913E-1,3.633999825E-1,3.271999955E-1
1.028364844E1,8.929999918E-2,3.759000003E-1,2.733999789E-1
1.029357500E1,8.999999845E-4,3.675999939E-1,2.098999918E-1
1.030350156E1,-2.769999951E-2,4.285999835E-1,1.737999916E-1
1.031342813E1,-6.899999827E-2,3.540000021E-1,1.809999906E-2
1.032335469E1,-1.459999941E-2,3.705999851E-1,-1.349000037E-1
1.033328125E1,1.078999937E-1,2.321999967E-1,-3.062999845E-1
1.034320625E1,5.399999768E-2,1.697999984E-1,-3.023000062E-1
1.035313281E1,5.899999756E-3,9.959999472E-2,-1.086999997E-1
1.036305938E1,-1.233999953E-1,1.897999942E-1,-7.599999662E-3
1.037298594E1,-1.625999957E-1,1.177999973E-1,6.209999695E-2
1.038291250E1,-2.087000012E-1,1.288999915E-1,2.369999886E-2
1.039283906E1,-1.588999927E-1,1.526999921E-1,2.840000018E-2
1.040276562E1,-1.432999969E-1,1.855999976E-1,3.039999865E-2
1.041269063E1,-7.000000030E-2,2.361999899E-1,-2.169999853E-2
1.042261719E1,1.689999923E-2,2.069000006E-1,-8.700000122E-3
1.043254375E1,9.119999409E-2,1.964999884E-1,1.970000006E-2
1.044247031E1,1.268000007E-1,2.069000006E-1,1.349000037E-1
1.045239688E1,2.225999981E-1,2.045999914E-1,5.869999900E-2
1.046232344E1,2.246999890E-1,2.135999948E-1,3.900000080E-2
1.047225000E1,2.347999960E-1,2.034000009E-1,3.999999724E-3
1.048217500E1,2.628000081E-1,1.455999911E-1,2.510000020E-2
1.049210156E1,2.278999984E-1,1.656999886E-1,5.769999698E-2
1.050202812E1,2.261999995E-1,2.034000009E-1,2.615000010E-1
1.051195469E1,1.208999977E-1,2.861000001E-1,3.919000030E-1
1.052188125E1,-5.939999968E-2,3.396999836E-1,2.927999794E-1
1.053180781E1,-3.077999949E-1,5.029999614E-1,6.250000000E-2
1.054173438E1,-3.546999991E-1,6.011999846E-1,-1.437999904E-1
1.055166094E1,-3.703999817E-1,5.830000043E-1,-2.023999989E-1
1.056158594E1,-2.881999910E-1,5.421999693E-1,-1.277000010E-1
1.057151250E1,-1.886999905E-1,6.013000011E-1,-7.109999657E-2
1.058143906E1,-1.865999997E-1,4.989999831E-1,-2.199999988E-3
1.059136562E1,-1.219999939E-1,5.565999746E-1,-8.899999782E-3
1.060129219E1,-6.279999763E-2,5.056999922E-1,-5.920000002E-2
1.061121875E1,-3.019999899E-2,4.826999903E-1,-8.839999884E-2
1.062114375E1,2.599999867E-2,4.397999942E-1,-8.190000057E-2
1.063107031E1,1.013000011E-1,3.867000043E-1,3.610000014E-2
1.064099688E1,1.703999937E-1,3.719999790E-1,1.599999890E-2
1.065092344E1,1.779999882E-1,4.028999805E-1,3.073000014E-1
1.066085000E1,1.167999953E-1,3.587999940E-1,2.951999903E-1
1.067077656E1,-3.229999915E-2,3.739999831E-1,1.206000000E-1
1.068070156E1,-6.859999895E-2,3.094999790E-1,4.649999738E-2
1.069062812E1,3.439999744E-2,2.150999904E-1,-8.879999816E-2
1.070055469E1,1.537999958E-1,2.131999880E-1,2.199999988E-3
1.071048125E1,1.908999979E-1,1.639000028E-1,1.468999982E-1
1.072040781E1,1.597999930E-1,-1.999999955E-2,1.194999963E-1
1.073033438E1,2.026000023E-1,8.899999782E-3,-5.389999971E-2
1.074026094E1,1.596999913E-1,-5.909999833E-2,-1.481000036E-1
1.075018594E1,1.809999906E-2,4.749999940E-2,-1.106999964E-1
1.076011250E1,-1.740999967E-1,1.507000029E-1,-2.909999900E-2
1.077003906E1,-3.326999843E-1,2.145999968E-1,5.739999935E-2
1.077996562E1,-3.709000051E-1,2.531999946E-1,6.819999963E-2
1.078989219E1,-2.500999868E-1,2.712000012E-1,-1.374000013E-1
1.079981719E1,-1.305000037E-1,3.298999965E-1,-9.730000049E-2
1.080974531E1,-1.542000026E-1,3.305999935E-1,-4.559999704E-2
1.081967031E1,-1.341999918E-1,3.718000054E-1,1.215999946E-1
1.082959688E1,-1.055999994E-1,4.032000005E-1,1.891999990E-1
1.083952344E1,-7.100000046E-3,3.386999965E-1,8.599999547E-2
1.084945000E1,1.084999964E-1,3.392999768E-1,-5.869999900E-2
1.085937500E1,1.376999915E-1,3.185999990E-1,-3.920000046E-2
1.086930312E1,1.049999967E-1,3.148999810E-1,3.799999831E-3
1.087922813E1,4.289999977E-2,3.016999960E-1,7.769999653E-2
1.088915469E1,2.850000001E-2,3.683999777E-1,8.199999481E-2
1.089908125E1,-3.189999983E-2,3.303000033E-1,3.559999913E-2
1.090900781E1,-6.979999691E-2,3.416999876E-1,3.280000016E-2
1.091893438E1,-1.579999924E-2,4.129999876E-1,1.142999977E-1
1.092886094E1,5.099999905E-2,3.434999883E-1,1.090000011E-2
1.093878750E1,9.290000051E-2,3.553999960E-1,1.410999894E-1
1.094871250E1,1.768999994E-1,3.784999847E-1,1.893000007E-1
1.095863906E1,2.255999893E-1,2.647999823E-1,1.544999927E-1
1.096856562E1,2.492999882E-1,2.088999897E-1,1.180000007E-1
1.097849219E1,1.519999951E-1,2.318999916E-1,-4.030000046E-2
1.098841875E1,2.799999900E-2,1.920999885E-1,-8.980000019E-2
1.099834531E1,-1.366000026E-1,2.863999903E-1,-7.569999993E-2
1.100827031E1,-3.068999946E-1,2.710999846E-1,-5.949999765E-2
1.101819688E1,-2.642999887E-1,3.553999960E-1,2.850000001E-2
1.102812344E1,-2.996999919E-1,3.452000022E-1,1.879999973E-2
1.103805000E1,-2.119999975E-1,3.058999777E-1,-8.359999955E-2
1.104797500E1,-1.307999939E-1,2.732000053E-1,-2.531000078E-1
1.105790156E1,-1.385999918E-1,2.497999966E-1,-2.384999990E-1
1.106782812E1,4.999999655E-4,2.477999926E-1,1.109999977E-2
1.107775469E1,1.120999977E-1,2.240999937E-1,7.469999790E-2
1.108768125E1,1.829999983E-1,1.937000006E-1,2.423999906E-1
1.109760781E1,1.551000029E-1,2.187999934E-1,3.348000050E-1
1.110753438E1,8.219999820E-2,2.182999998E-1,2.890000045E-1
1.111746094E1,1.299999934E-2,1.937000006E-1,5.819999799E-2
1.112738750E1,4.199999850E-3,1.757999957E-1,-1.523000002E-1
1.113731250E1,-8.999999613E-3,1.709000021E-1,-2.820999920E-1
1.114724062E1,1.034999937E-1,1.997999996E-1,-2.599000037E-1
1.115716563E1,1.577000022E-1,1.508999914E-1,-7.909999788E-2
1.116709219E1,1.171999946E-1,2.246999890E-1,8.729999512E-2
1.117701719E1,8.639999479E-2,3.235999942E-1,2.354999930E-1
1.118694375E1,1.059999969E-2,4.260999858E-1,2.161999941E-1
1.119687188E1,-6.379999965E-2,4.343999922E-1,2.298000008E-1
1.120679688E1,-1.299999952E-1,3.844999969E-1,1.988999993E-1
1.121672500E1,-1.201999933E-1,4.535999894E-1,2.432999909E-1
1.122665000E1,-4.589999840E-2,5.509999990E-1,2.462999970E-1
1.123657500E1,5.519999936E-2,4.450999796E-1,2.613999844E-1
1.124650312E1,6.309999526E-2,4.690999985E-1,2.219999954E-2
1.125642813E1,1.140000001E-1,4.116999805E-1,-3.199999779E-2
1.126635625E1,9.489999712E-2,4.346999824E-1,-1.733999997E-1
1.127628281E1,6.169999763E-2,3.912999928E-1,-5.099999718E-3
1.128620938E1,2.749999985E-2,4.663999975E-1,1.782999933E-1
1.129613438E1,-7.419999689E-2,3.308999836E-1,1.543999910E-1
1.130606094E1,-1.006999984E-1,3.762999773E-1,-7.119999826E-2
1.131598750E1,-1.752000004E-1,3.330999911E-1,-2.615999877E-1
1.132591406E1,-1.439999938E-1,3.509999812E-1,-3.889999986E-1
1.133584063E1,-1.557999998E-1,3.082999885E-1,-2.920999825E-1
1.134576719E1,-1.703999937E-1,3.989000022E-1,3.099999949E-2
1.135569219E1,-1.700999886E-1,4.584999979E-1,2.399999946E-1
1.136561875E1,-2.080000006E-2,3.644999862E-1,2.739999890E-1
1.137554375E1,5.260000005E-2,3.613999784E-1,1.541000009E-1
1.138547031E1,2.324999869E-1,3.461999893E-1,1.850000024E-2
1.139539688E1,2.023999989E-1,3.380999863E-1,4.619999975E-2
1.140532344E1,1.340999901E-1,2.768999934E-1,-1.099999994E-3
1.141525156E1,8.349999785E-2,3.937000036E-1,1.129999980E-1
1.142517656E1,-4.629999772E-2,3.464999795E-1,1.391000003E-1
1.143510313E1,-7.609999925E-2,3.491999805E-1,5.590000004E-2
1.144502969E1,-9.059999883E-2,3.192999959E-1,-3.489999846E-2
1.145495625E1,-7.019999623E-2,3.274999857E-1,-1.229999959E-1
1.146488281E1,-2.789999917E-2,3.434000015E-1,-9.059999883E-2
1.147480938E1,-4.389999807E-2,2.417999953E-1,0.000000000E0
1.148473438E1,-2.060000040E-2,2.897999883E-1,1.022999957E-1
1.149466094E1,1.679999940E-2,2.802000046E-1,9.009999782E-2
1.150458750E1,-2.620000020E-2,2.630999982E-1,7.429999858E-2
1.151451406E1,-6.539999694E-2,2.160999924E-1,-9.800000116E-3
1.152444062E1,-5.370000005E-2,1.956999898E-1,-7.779999822E-2
1.153436719E1,6.309999526E-2,1.248999983E-1,-2.869999968E-2
1.154429219E1,1.225999966E-1,2.325999886E-1,8.609999716E-2
1.155421875E1,1.177999973E-1,1.551000029E-1,1.472000033E-1
1.156414531E1,1.349000037E-1,1.462000012E-1,7.769999653E-2
1.157407188E1,3.390000015E-2,1.263999939E-1,-9.219999611E-2
1.158399688E1,1.092000008E-1,2.037999928E-1,-9.479999542E-2
1.159392500E1,6.469999999E-2,1.915999949E-1,-5.109999701E-2
1.160385000E1,4.369999841E-2,2.093999982E-1,7.689999789E-2
1.161377656E1,3.629999980E-2,2.489999980E-1,1.516000032E-1
1.162370312E1,-1.005999967E-1,3.646999896E-1,3.077999949E-1
1.163362969E1,-1.546999961E-1,4.027999938E-1,2.345999926E-1
1.164355469E1,-1.683999896E-1,4.691999853E-1,1.101999953E-1
1.165348125E1,-2.465999871E-1,3.930999935E-1,-7.939999551E-2
1.166340781E1,-2.202999890E-1,4.521999955E-1,-1.326999962E-1
1.167333438E1,-1.412999928E-1,3.975999951E-1,-1.319999993E-1
1.168326094E1,-2.539999969E-2,3.944000006E-1,4.979999736E-2
1.169318594E1,7.209999859E-2,4.316999912E-1,1.144999936E-1
1.170311250E1,1.700000018E-1,3.696999848E-1,3.499999875E-3
1.171303906E1,1.322000027E-1,2.789999843E-1,-1.970000006E-2
1.172296562E1,9.769999981E-2,3.139999807E-1,-1.517999917E-1
1.173289219E1,7.499999832E-3,2.797999978E-1,-6.149999797E-2
1.174281875E1,-6.579999626E-2,2.460999936E-1,2.199999988E-3
1.175274531E1,-4.609999806E-2,2.666999996E-1,1.499999911E-1
1.176267031E1,9.369999915E-2,1.993999928E-1,1.513999999E-1
1.177259688E1,1.929000020E-1,2.252999991E-1,1.973000020E-1
1.178252344E1,2.793999910E-1,1.128999963E-1,1.092999950E-1
1.179245000E1,2.345999926E-1,1.709999889E-1,1.746999919E-1
1.180237656E1,1.799999923E-1,2.181999981E-1,1.475999951E-1
1.181230313E1,2.899999963E-3,2.328999937E-1,9.499999695E-3
1.182222969E1,-8.469999582E-2,2.806999981E-1,-8.419999480E-2
1.183215625E1,-2.436999977E-1,4.413999915E-1,-1.726000011E-1
1.184208125E1,-2.793000042E-1,3.542999923E-1,-1.083999947E-1
1.185200781E1,-3.188000023E-1,4.037999809E-1,-9.399999678E-2
1.186193438E1,-3.561999798E-1,4.969999790E-1,-3.810000047E-2
1.187186094E1,-2.540000081E-1,5.828999877E-1,-8.009999990E-2
1.188178750E1,-1.291999966E-1,4.369999766E-1,-1.229999959E-2
1.189171406E1,1.310999990E-1,4.840999842E-1,-5.899999756E-3
1.190163906E1,2.743999958E-1,4.136999846E-1,1.099999994E-1
1.191156563E1,2.917999923E-1,3.750000000E-1,2.868999839E-1
1.192149219E1,3.506999910E-1,2.234999985E-1,3.084999919E-1
1.193141875E1,2.311999947E-1,2.342999876E-1,3.488999903E-1
1.194134531E1,1.820999980E-1,2.597000003E-1,2.492999882E-1
1.195127188E1,5.099999718E-3,2.527000010E-1,8.779999614E-2
1.196119844E1,-1.105000004E-1,2.804999948E-1,-2.300999910E-1
1.197112344E1,-1.586999893E-1,2.892999947E-1,-3.464999795E-1
1.198105000E1,-1.761000007E-1,2.821999788E-1,-3.628000021E-1
1.199097656E1,-1.884000003E-1,3.765999973E-1,-1.352999955E-1
1.200090312E1,-2.347999960E-1,4.095999897E-1,1.557999998E-1
1.201082969E1,-2.085999995E-1,3.104999959E-1,7.769999653E-2
1.202075469E1,1.139999926E-2,2.712000012E-1,-2.630000003E-2
1.203068125E1,1.977999955E-1,3.105999827E-1,-9.009999782E-2
1.204060781E1,1.835999936E-1,2.723000050E-1,5.609999970E-2
1.205053438E1,1.687999964E-1,2.442999929E-1,2.895999849E-1
1.206046094E1,9.690000117E-2,2.649999857E-1,5.480999947E-1
1.207038750E1,-4.710000008E-2,3.904999793E-1,4.844999909E-1
1.208031406E1,-8.469999582E-2,3.867999911E-1,1.208999977E-1
1.209023906E1,-7.750000060E-2,3.423999846E-1,-2.374999970E-1
1.210016562E1,-7.289999723E-2,3.359999955E-1,-3.643999994E-1
1.211009219E1,-3.500000015E-2,3.410999775E-1,-2.337999940E-1
1.212001875E1,-4.919999838E-2,2.894999981E-1,-1.799999969E-3
1.212994375E1,5.599999800E-3,3.018999994E-1,6.069999933E-2
1.213987188E1,-9.309999645E-2,2.814999819E-1,6.379999965E-2
1.214979844E1,-6.250000000E-2,3.215999901E-1,-1.979999989E-2
1.215972500E1,-1.439999938E-1,2.525999844E-1,-1.039999947E-1
1.216965000E1,4.429999739E-2,2.588000000E-1,-7.449999452E-2
1.217957656E1,8.789999783E-2,2.063999921E-1,-4.600000009E-2
1.218950312E1,1.458999962E-1,2.636999786E-1,1.180999950E-1
1.219942969E1,2.104000002E-1,2.557999790E-1,2.122999877E-1
1.220935625E1,1.223999932E-1,2.703999877E-1,2.008999884E-1
1.221928281E1,-3.969999775E-2,3.060999811E-1,1.472000033E-1
1.222920938E1,-4.899999872E-2,4.194999933E-1,4.559999704E-2
1.223913438E1,-1.201999933E-1,3.741999865E-1,6.079999730E-2
1.224906094E1,-1.815000027E-1,3.847000003E-1,2.809999883E-2
1.225898750E1,-2.859999985E-2,4.598999918E-1,-7.539999485E-2
1.226891406E1,3.739999980E-2,4.363999963E-1,-5.709999800E-2
1.227884062E1,1.975999922E-1,3.085999787E-1,7.000000030E-2
1.228876562E1,2.888999879E-1,3.104999959E-1,2.228999883E-1
1.229869219E1,2.599000037E-1,2.296999991E-1,3.344999850E-1
1.230861875E1,1.944999993E-1,2.714999914E-1,2.421999872E-1
1.231854531E1,4.569999874E-2,3.037999868E-1,9.919999540E-2
1.232847188E1,-1.873999983E-1,3.774999976E-1,-2.740000002E-2
1.233839688E1,-2.319999933E-1,4.426999986E-1,-1.100999936E-1
1.234832500E1,-3.750999868E-1,4.302999973E-1,-1.862999946E-1
1.235825156E1,-3.732999861E-1,4.205999970E-1,-9.839999676E-2
1.236817656E1,-2.842999995E-1,5.040999651E-1,-6.199999712E-3
1.237810312E1,-2.910999954E-1,4.630999863E-1,-1.019999944E-2
1.238802812E1,-1.137999967E-1,4.420000017E-1,-8.699999750E-2
1.239795469E1,-8.659999818E-2,3.506999910E-1,-2.248999923E-1
1.240788125E1,-1.009999961E-2,3.332999945E-1,-3.057999909E-1
1.241780781E1,2.119999938E-2,3.163000047E-1,-1.639999896E-1
1.242773594E1,9.169999510E-2,2.595999837E-1,-3.249999881E-2
1.243766094E1,1.621000022E-1,2.159999907E-1,1.264999956E-1
1.244758750E1,1.697999984E-1,1.270000041E-1,2.606000006E-1
1.245751406E1,1.867000014E-1,1.481999904E-1,1.501999944E-1
1.246744062E1,1.561999917E-1,1.300999969E-1,6.260000169E-2
1.247736719E1,7.949999720E-2,1.123999953E-1,-9.399999864E-3
1.248729375E1,5.879999697E-2,1.615999937E-1,-4.149999842E-2
1.249721875E1,3.189999983E-2,1.136000007E-1,1.466999948E-1
1.250714531E1,8.540000021E-2,1.163999960E-1,1.604999900E-1
1.251707188E1,1.644999981E-1,5.219999701E-2,1.579999924E-1
1.252699844E1,2.399999946E-1,1.277000010E-1,1.574999988E-1
1.253692500E1,1.643999964E-1,1.076999977E-1,1.146999970E-1
1.254685156E1,5.929999799E-2,1.043999940E-1,1.053999960E-1
1.255677813E1,-1.999999955E-2,2.369999886E-1,6.929999590E-2
1.256670469E1,-1.840000004E-1,3.140999973E-1,-8.029999584E-2
1.257662969E1,-2.417999953E-1,3.762999773E-1,-1.550000012E-1
1.258655625E1,-3.287999928E-1,4.140999913E-1,-2.852999866E-1
1.259648281E1,-3.610999882E-1,4.539999962E-1,-1.743000001E-1
1.260640938E1,-3.531999886E-1,5.684999824E-1,3.669999912E-2
1.261633594E1,-3.131999969E-1,5.904999971E-1,1.030999944E-1
1.262626094E1,-8.980000019E-2,6.536999941E-1,1.568999887E-1
1.263618750E1,7.869999856E-2,5.730000138E-1,2.445999980E-1
1.264611406E1,2.933999896E-1,4.580999911E-1,1.345999986E-1
1.265603906E1,3.739999831E-1,4.384000003E-1,1.682000011E-1
1.266596562E1,2.770999968E-1,4.314000010E-1,2.219000012E-1
1.267589219E1,2.818000019E-1,3.691999912E-1,2.179999948E-1
1.268581875E1,1.780999899E-1,3.540000021E-1,1.186999977E-1
1.269574531E1,1.186999977E-1,2.732000053E-1,9.339999408E-2
1.270567188E1,3.570000082E-2,3.158999979E-1,-6.999999750E-3
1.271559688E1,-6.209999695E-2,3.146999776E-1,-4.439999908E-2
1.272552344E1,-1.771999896E-1,4.461999834E-1,-5.269999802E-2
1.273545000E1,-2.879999876E-1,4.196999967E-1,-1.105999947E-1
1.274537656E1,-2.762999833E-1,4.208000004E-1,-1.322000027E-1
1.275530313E1,-2.138999999E-1,3.515999913E-1,-2.949999869E-1
1.276522969E1,-1.333999932E-1,3.048000038E-1,-2.089999914E-1
1.277515625E1,-7.050000131E-2,2.831999958E-1,7.509999722E-2
1.278508281E1,3.509999812E-2,3.322999775E-1,1.994999945E-1
1.279500781E1,7.379999757E-2,2.462999970E-1,2.568999827E-1
1.280493438E1,1.085999981E-1,2.611999810E-1,1.265999973E-1
1.281486094E1,2.363999933E-1,2.944999933E-1,4.900000058E-3
1.282478750E1,2.356999964E-1,1.881999969E-1,4.899999872E-2
1.283471406E1,1.379999965E-1,1.578999907E-1,-2.740000002E-2
1.284464062E1,1.005999967E-1,1.665999889E-1,4.099999741E-2
1.285456563E1,-1.009999961E-2,2.261999995E-1,5.609999970E-2
1.286449219E1,-5.319999903E-2,2.094999999E-1,8.649999648E-2
1.287442031E1,-3.779999912E-2,2.187999934E-1,1.249999925E-2
1.288434531E1,5.249999836E-2,1.808999926E-1,9.399999864E-3
1.289427188E1,1.076999977E-1,1.902000010E-1,-2.359999903E-2
1.290419844E1,8.280000091E-2,2.298999876E-1,3.319999948E-2
1.291412500E1,-2.850000001E-2,2.533999979E-1,2.333000004E-1
1.292405000E1,-8.119999617E-2,2.793000042E-1,2.069999874E-1
1.293397813E1,-1.680999994E-1,3.815999925E-1,1.167999953E-1
1.294390312E1,-1.381999999E-1,4.459999800E-1,7.759999484E-2
1.295382969E1,-1.507000029E-1,4.277999997E-1,-8.020000160E-2
1.296375625E1,-1.891999990E-1,3.919000030E-1,-1.586000025E-1
1.297368281E1,-1.357000023E-1,4.341000021E-1,-1.174999997E-1
1.298360938E1,-1.819999963E-1,4.194999933E-1,-6.659999490E-2
1.299353438E1,-2.110999972E-1,4.249999821E-1,-4.459999874E-2
1.300346094E1,-2.269999981E-1,4.431999922E-1,-4.820000008E-2
1.301338750E1,-1.894000024E-1,4.109999835E-1,-2.177999914E-1
1.302331406E1,-4.360000044E-2,3.471999764E-1,-3.079999983E-1
1.303324063E1,1.413999945E-1,3.622999787E-1,-2.909999900E-2
1.304316719E1,1.255999953E-1,3.510999978E-1,2.543999851E-1
1.305309219E1,1.344999969E-1,3.517999947E-1,4.320999980E-1
1.306301875E1,2.484999895E-1,3.761000037E-1,4.070999920E-1
1.307294531E1,2.644999921E-1,3.395999968E-1,3.184999824E-1
1.308287188E1,2.588000000E-1,2.815999985E-1,1.020999998E-1
1.309279844E1,1.963000000E-1,3.209999800E-1,1.658999920E-1
1.310272500E1,1.374000013E-1,2.933000028E-1,2.834999859E-1
1.311265156E1,-8.529999852E-2,3.280999959E-1,7.889999449E-2
1.312257656E1,-1.643999964E-1,4.329999983E-1,-9.699999541E-2
1.313250313E1,-2.529999912E-1,4.569999874E-1,-2.439999878E-1
1.314242969E1,-2.545999885E-1,3.384000063E-1,-2.736999989E-1
1.315235625E1,-1.798999906E-1,2.373999953E-1,-1.392000020E-1
1.316228281E1,-8.799999952E-2,2.784999907E-1,-4.539999738E-2
1.317220938E1,-2.609999850E-2,2.673999965E-1,1.116999984E-1
1.318213438E1,-8.259999752E-2,2.100999951E-1,7.239999622E-2
1.319206094E1,-2.149999887E-2,2.295999974E-1,-5.879999697E-2
1.320198750E1,2.199999988E-2,2.072999924E-1,-1.208999977E-1
1.321191406E1,6.039999798E-2,1.655000001E-1,-8.839999884E-2
1.322184062E1,1.385999918E-1,1.486999989E-1,-1.196999997E-1
1.323176719E1,8.089999855E-2,1.815999895E-1,-5.089999735E-2
1.324169375E1,3.299999982E-3,1.598999947E-1,4.389999807E-2
1.325162031E1,-1.999999949E-4,1.902999878E-1,1.305999905E-1
1.326154531E1,3.339999914E-2,1.805000007E-1,6.459999830E-2
1.327147188E1,1.158000007E-1,2.342999876E-1,1.969999969E-1
1.328139844E1,1.279999912E-1,2.407999933E-1,2.061000019E-1
1.329132500E1,2.395999879E-1,1.977999955E-1,1.732999980E-1
1.330125156E1,1.826999933E-1,1.863999963E-1,2.400999963E-1
1.331117813E1,1.396999955E-1,2.778999805E-1,2.298999876E-1
1.332110312E1,6.309999526E-2,3.732999861E-1,8.959999681E-2
1.333102969E1,-8.669999987E-2,3.989999890E-1,9.470000118E-2
1.334095625E1,-1.894999892E-1,4.289999902E-1,-4.279999807E-2
1.335088281E1,-2.190999985E-1,4.332999885E-1,-1.036999971E-1
1.336080938E1,-2.782999873E-1,3.664999902E-1,-9.919999540E-2
1.337073594E1,-1.903999895E-1,3.599999845E-1,-1.339000016E-1
1.338066250E1,-2.261999995E-1,4.305999875E-1,-1.392000020E-1
1.339058906E1,-1.984999925E-1,3.880999982E-1,-4.800000042E-2
1.340051406E1,-2.232999951E-1,3.195999861E-1,-1.420000009E-2
1.341044063E1,-1.288999915E-1,2.876999974E-1,-1.079999954E-1
1.342036719E1,-3.700000001E-3,2.458999902E-1,-1.356000006E-1
1.343029375E1,8.659999818E-2,2.439000010E-1,-3.150000051E-2
1.344022031E1,1.937000006E-1,2.277999967E-1,-8.679999411E-2
1.345014688E1,2.470999956E-1,1.401999891E-1,-8.329999447E-2
1.346007344E1,1.902999878E-1,1.649999991E-2,-6.019999832E-2
1.346999844E1,2.574000061E-1,1.516000032E-1,1.154999956E-1
1.347992500E1,2.417999953E-1,1.035999954E-1,2.754999995E-1
1.348985156E1,2.334999889E-1,7.189999521E-2,3.574000001E-1
1.349977812E1,1.935999990E-1,2.026000023E-1,3.551000059E-1
1.350970469E1,7.199999690E-2,2.176999897E-1,2.013999969E-1
1.351963125E1,-2.089999989E-2,2.803999782E-1,-1.799999923E-1
1.352955781E1,-1.199999973E-1,4.153999984E-1,-1.803999990E-1
1.353948281E1,-2.639999986E-1,4.403999746E-1,-5.499999970E-3
1.354940938E1,-2.055999935E-1,5.853999853E-1,2.311999947E-1
1.355933594E1,-2.137999982E-1,6.541999578E-1,2.879000008E-1
1.356926250E1,-1.746999919E-1,6.754999757E-1,3.304999769E-1
1.357918906E1,-1.456999928E-1,6.441000104E-1,1.420000009E-2
1.358911406E1,-2.799999900E-3,5.852999687E-1,-1.475999951E-1
1.359904062E1,1.899999916E-3,5.494999886E-1,-1.770000011E-1
1.360896719E1,-7.209999859E-2,3.771999776E-1,-7.169999927E-2
1.361889375E1,-1.919999905E-2,3.504999876E-1,7.400000095E-2
1.362882031E1,-1.059999987E-1,3.370999992E-1,5.200000014E-3
1.363874688E1,-6.409999728E-2,2.759000063E-1,-1.058999971E-1
1.364867344E1,-9.119999409E-2,3.016999960E-1,-2.360000014E-1
1.365859844E1,-5.899999756E-3,2.442999929E-1,-3.103999794E-1
1.366852500E1,5.810000002E-2,1.780999899E-1,-1.296000034E-1
1.367845000E1,6.740000099E-2,2.052000016E-1,1.975999922E-1
1.368837813E1,2.456999868E-1,2.247999907E-1,3.195999861E-1
1.369830312E1,3.389999866E-1,1.987999976E-1,3.185999990E-1
1.370822969E1,3.656999767E-1,1.291999966E-1,1.943999976E-1
1.371815625E1,2.368000001E-1,1.209999993E-1,1.178999990E-1
1.372808281E1,1.454000026E-1,2.185999900E-1,1.178999990E-1
1.373800938E1,3.949999809E-2,3.039999902E-1,1.125999987E-1
1.374793438E1,-1.127000004E-1,3.254999816E-1,3.879999742E-2
1.375786094E1,-2.184999883E-1,5.015000105E-1,2.939999849E-2
1.376778750E1,-2.848999798E-1,5.472999811E-1,-2.639999986E-2
1.377771406E1,-3.549000025E-1,5.708999634E-1,-8.169999719E-2
1.378764063E1,-3.213000000E-1,5.575000048E-1,-9.699999355E-3
1.379756719E1,-2.238999903E-1,6.836999655E-1,-9.999999747E-5
1.380749219E1,-1.124999970E-1,6.141999960E-1,1.769999973E-2
1.381741875E1,4.580000043E-2,5.367999673E-1,1.115999967E-1
1.382734531E1,2.069999874E-1,5.275999904E-1,1.217999980E-1
1.383727188E1,2.778999805E-1,3.908999860E-1,1.851999909E-1
1.384719844E1,2.100999951E-1,3.436000049E-1,1.173999980E-1
1.385712500E1,1.709000021E-1,2.967000008E-1,3.549999744E-2
1.386705156E1,1.239999980E-1,2.158999890E-1,-1.235999987E-1
1.387697656E1,4.099999741E-2,1.237000003E-1,-1.731999964E-1
1.388690469E1,2.559999935E-2,2.047999948E-1,-1.499999911E-1
1.389682969E1,-4.889999703E-2,2.282999903E-1,-5.769999698E-2
1.390675625E1,-1.279999912E-1,2.944000065E-1,1.241999939E-1
1.391668281E1,-2.787999809E-1,2.954999804E-1,1.480000019E-1
1.392660938E1,-2.638999820E-1,3.674999774E-1,1.184999943E-1
1.393653594E1,-1.614999920E-1,3.898999989E-1,-3.209999949E-2
1.394646250E1,-1.381999999E-1,4.212999940E-1,-8.739999682E-2
1.395638906E1,-4.329999909E-2,4.114999771E-1,-1.559999958E-2
1.396631562E1,-2.349999920E-2,4.298000038E-1,4.639999941E-2
1.397624062E1,-3.359999880E-2,3.537999988E-1,2.492999882E-1
1.398616719E1,5.719999969E-2,3.106999993E-1,2.626000047E-1
1.399609375E1,9.290000051E-2,2.579999864E-1,1.525000036E-1
1.400602031E1,1.049999967E-1,2.726999819E-1,6.729999930E-2
1.401594531E1,1.235999987E-1,2.237999886E-1,-1.333999932E-1
1.402587188E1,7.699999958E-2,2.009999901E-1,-4.779999703E-2
1.403579844E1,0.000000000E0,1.275999993E-1,-3.969999775E-2
1.404572500E1,6.999999750E-4,1.817999929E-1,-3.859999776E-2
1.405565156E1,-7.169999927E-2,2.261999995E-1,-5.040000007E-2
1.406557812E1,-9.189999849E-2,2.250999957E-1,-5.429999903E-2
1.407550469E1,-1.409999933E-2,2.710999846E-1,-4.769999906E-2
1.408543125E1,5.009999871E-2,2.558999956E-1,-1.271999925E-1
1.409535781E1,1.829999872E-2,2.423999906E-1,-6.250000000E-2
1.410528438E1,4.969999939E-2,3.109999895E-1,1.294000000E-1
1.411520938E1,3.049999848E-2,3.114999831E-1,1.372999996E-1
1.412513594E1,1.394999921E-1,3.705999851E-1,9.629999846E-2
1.413506250E1,1.525000036E-1,3.461999893E-1,1.533000022E-1
1.414498750E1,2.020999938E-1,3.741999865E-1,2.398999929E-1
1.415491406E1,1.894999892E-1,3.440999985E-1,3.050000072E-1
1.416484062E1,3.150000051E-2,4.851999879E-1,3.807999790E-1
1.417476719E1,-1.089999974E-1,5.187000036E-1,2.329999954E-1
1.418469375E1,-1.248999983E-1,4.784999788E-1,5.900000036E-2
1.419462031E1,-1.903999895E-1,5.565999746E-1,-9.979999810E-2
1.420454531E1,-1.951999962E-1,4.804999828E-1,-1.946999878E-1
1.421447188E1,-1.679999977E-1,4.289000034E-1,-1.832999885E-1
1.422439844E1,-1.074999943E-1,3.507999778E-1,-6.849999726E-2
1.423432500E1,3.199999919E-3,2.642999887E-1,-6.700000167E-2
1.424425156E1,1.404999942E-1,1.598999947E-1,-6.740000099E-2
1.425417813E1,2.613999844E-1,7.649999857E-2,-6.839999557E-2
1.426410312E1,2.384999990E-1,4.499999806E-3,-7.099999487E-2
1.427402969E1,1.062999964E-1,7.989999652E-2,-1.939999871E-2
1.428395625E1,-3.000000026E-3,1.178999990E-1,-3.999999899E-4
1.429388281E1,-1.206000000E-1,1.374000013E-1,4.050000012E-2
1.430380938E1,-2.269999981E-1,1.089999974E-1,8.259999752E-2
1.431373594E1,-1.689999998E-1,2.379999906E-1,5.590000004E-2
1.432366250E1,-1.015999988E-1,2.309999913E-1,8.879999816E-2
1.433358750E1,-1.269999985E-2,2.727999985E-1,3.929999843E-2
1.434351406E1,5.499999970E-2,2.646999955E-1,3.419999778E-2
1.435344063E1,1.595999897E-1,2.543999851E-1,2.319999970E-2
1.436336719E1,1.374000013E-1,2.498999983E-1,2.311999947E-1
1.437329375E1,6.209999695E-2,2.278999984E-1,2.883999944E-1
1.438322031E1,3.179999813E-2,3.082999885E-1,3.163000047E-1
1.439314688E1,9.200000204E-3,2.694000006E-1,1.387999952E-1
1.440307344E1,-8.139999956E-2,3.163000047E-1,-3.629999980E-2
1.441299844E1,-1.058999971E-1,3.616999984E-1,-1.766999960E-1
1.442292500E1,-2.750999928E-1,3.402999938E-1,-3.003000021E-1
1.443285156E1,-1.970999986E-1,3.443999887E-1,-2.877999842E-1
1.444277812E1,-3.075000048E-1,4.095999897E-1,-3.064999878E-1
1.445270469E1,-2.352999896E-1,3.630000055E-1,-1.489999890E-1
1.446263125E1,-9.609999508E-2,4.093999863E-1,-2.139999904E-2
1.447255781E1,-2.159999870E-2,3.693999946E-1,6.430000067E-2
1.448248281E1,5.329999700E-2,3.526999950E-1,2.187999934E-1
1.449240938E1,1.385999918E-1,2.592999935E-1,3.027999997E-1
1.450233594E1,2.386999875E-1,2.538999915E-1,2.714000046E-1
1.451226250E1,3.201999962E-1,2.287999988E-1,1.612000018E-1
1.452218906E1,3.387999833E-1,1.841999888E-1,4.779999703E-2
1.453211563E1,2.563999891E-1,8.850000054E-2,-2.579999901E-2
1.454204062E1,1.941999942E-1,1.384999901E-1,5.999999703E-4
1.455196719E1,1.231999993E-1,1.965999901E-1,-2.669999935E-2
1.456189375E1,-1.599999960E-3,1.960999966E-1,7.299999706E-3
1.457182031E1,-5.619999766E-2,2.193000019E-1,1.815000027E-1
1.458174688E1,-8.889999986E-2,2.534999847E-1,1.844999939E-1
1.459167344E1,-5.169999972E-2,2.371999919E-1,1.111999974E-1
1.460160000E1,-2.689999901E-2,2.318999916E-1,5.839999765E-2
1.461152500E1,-7.400000002E-3,2.766999900E-1,5.979999900E-2
1.462145156E1,-5.279999971E-2,3.392999768E-1,1.559000015E-1
1.463137813E1,-9.439999610E-2,3.925999999E-1,1.899999976E-1
1.464130469E1,-1.368999928E-1,3.851999938E-1,6.119999662E-2
1.465123125E1,-1.960999966E-1,3.838999867E-1,-8.839999884E-2
1.466115781E1,-2.705999911E-1,3.804000020E-1,-1.363999993E-1
1.467108281E1,-2.611999810E-1,4.210000038E-1,-1.853999943E-1
1.468100938E1,-1.907999963E-1,4.508999884E-1,-1.338000000E-1
1.469093594E1,-2.107999921E-1,3.944999874E-1,-1.574999988E-1
1.470086250E1,-1.836999953E-1,4.104999900E-1,-1.149000004E-1
1.471078906E1,-5.849999934E-2,4.048999846E-1,-1.515000015E-1
1.472071406E1,1.769999973E-2,3.792999983E-1,-1.732999980E-1
1.473064063E1,2.047999948E-1,3.067999780E-1,9.989999980E-2
1.474056875E1,2.375999987E-1,3.249000013E-1,2.551999986E-1
1.475049375E1,1.809999943E-1,2.956999838E-1,2.791000009E-1
1.476042031E1,2.187999934E-1,2.516999841E-1,2.782999873E-1
1.477034688E1,9.619999677E-2,3.515000045E-1,2.399999946E-1
1.478027344E1,-1.030000020E-2,2.793999910E-1,3.969999775E-2
1.479019844E1,-1.159999985E-2,3.868999779E-1,-9.669999778E-2
1.480012500E1,7.779999822E-2,3.220999837E-1,-2.321999967E-1
1.481005156E1,8.399999887E-2,3.561999798E-1,-5.769999698E-2
1.481997812E1,7.299999893E-2,3.251999915E-1,2.117999941E-1
1.482990469E1,7.050000131E-2,3.278999925E-1,2.730000019E-1
1.483983125E1,1.679999940E-2,4.135999978E-1,2.748999894E-1
1.484975781E1,-1.111999974E-1,4.321999848E-1,7.129999995E-2
1.485968281E1,-1.994999945E-1,3.865000010E-1,-9.359999746E-2
1.486960938E1,-2.754999995E-1,4.696999788E-1,-1.735000014E-1
1.487953594E1,-2.113999873E-1,5.044999719E-1,-5.279999971E-2
1.488946250E1,-2.175000012E-1,5.906999707E-1,9.169999510E-2
1.489938906E1,-1.665999889E-1,6.031000018E-1,1.777999997E-1
1.490931406E1,-7.149999589E-2,5.685999990E-1,1.676999927E-1
1.491924062E1,-4.600000102E-3,5.245000124E-1,8.129999787E-2
1.492916875E1,1.679999940E-2,4.382999837E-1,-9.699999355E-3
1.493909531E1,2.459999919E-2,2.978000045E-1,-1.043999940E-1
1.494902031E1,1.008000001E-1,2.611999810E-1,-1.149000004E-1
1.495894688E1,1.686999947E-1,2.639999986E-1,-2.349999920E-2
1.496887344E1,7.009999454E-2,2.414999902E-1,9.779999405E-2
1.497880000E1,2.047999948E-1,2.692999840E-1,1.380999982E-1
1.498872500E1,1.900999993E-1,1.421999931E-1,7.509999722E-2
1.499865156E1,1.587999910E-1,1.441999972E-1,1.679999940E-2
1.500857813E1,4.800000042E-2,1.657999903E-1,5.599999800E-3
1.501850469E1,-1.396999955E-1,2.236999869E-1,-1.659999974E-2
1.502842969E1,-2.050999999E-1,1.710999906E-1,-8.839999884E-2
1.503835625E1,-1.551999897E-1,1.749999970E-1,-1.912999898E-1
1.504828281E1,-1.093999967E-1,1.607999951E-1,-1.411999911E-1
1.505820938E1,-3.209999949E-2,1.777999997E-1,-8.299999870E-3
1.506813594E1,3.249999881E-2,1.684999913E-1,1.870999932E-1
1.507806250E1,-5.099999718E-3,2.204999924E-1,2.222999930E-1
1.508798750E1,6.520000100E-2,2.361999899E-1,1.644999981E-1
1.509791406E1,-3.709999844E-2,2.421000004E-1,5.599999800E-2
1.510784063E1,-2.149999887E-2,2.146999985E-1,-8.209999651E-2
1.511776719E1,1.102999970E-1,2.040999979E-1,-1.399999950E-3
1.512769375E1,1.727999896E-1,1.397999972E-1,-1.066999957E-1
1.513762031E1,1.504999995E-1,1.419999897E-1,-1.732999980E-1
1.514754688E1,1.756999940E-1,1.660999954E-1,-6.399999559E-2
1.515747344E1,4.140000045E-2,2.431999892E-1,2.859999985E-2
1.516739844E1,-7.180000097E-2,3.484999835E-1,6.790000200E-2
1.517732500E1,-1.824999899E-1,4.659999907E-1,7.959999889E-2
1.518725156E1,-2.375999987E-1,4.893999994E-1,1.264999956E-1
1.519717969E1,-1.712999940E-1,5.353999734E-1,2.401999980E-1
1.520710469E1,-1.946000010E-1,5.234999657E-1,2.391999960E-1
1.521703125E1,-2.150999904E-1,6.021999717E-1,2.210999876E-1
1.522695781E1,-2.334999889E-1,6.333999634E-1,1.783999950E-1
1.523688438E1,-2.136999965E-1,5.999000072E-1,-5.350000039E-2
1.524680938E1,-7.329999655E-2,4.905999899E-1,-1.678999960E-1
1.525673594E1,3.909999877E-2,3.887999952E-1,-9.209999442E-2
1.526666250E1,1.617999971E-1,3.337000012E-1,8.999999845E-4
1.527658906E1,2.363999933E-1,2.366999984E-1,5.689999834E-2
1.528651563E1,3.094999790E-1,1.805000007E-1,1.449999958E-2
1.529644219E1,2.938999832E-1,1.305000037E-1,8.919999748E-2
1.530636719E1,2.547000051E-1,1.328999996E-1,1.503999978E-1
1.531629375E1,4.270000011E-2,1.765999943E-1,1.623999923E-1
1.532622031E1,-9.979999810E-2,2.025000006E-1,1.749999970E-1
1.533614688E1,-1.510999948E-1,1.789999902E-1,3.680000082E-2
1.534607344E1,-5.549999699E-2,1.900999993E-1,-6.179999933E-2
1.535600000E1,8.519999683E-2,1.586999893E-1,-8.370000124E-2
1.536592500E1,1.384000033E-1,1.950999945E-1,-3.130000085E-2
1.537585156E1,7.819999754E-2,2.635000050E-1,1.562999934E-1
1.538577813E1,5.769999698E-2,2.268999964E-1,1.640999913E-1
1.539570469E1,-7.319999486E-2,3.089999855E-1,9.549999982E-2
1.540563125E1,-1.265999973E-1,3.497000039E-1,-3.460000083E-2
1.541555781E1,-2.307999879E-1,3.858999908E-1,-1.762999892E-1
1.542548438E1,-2.750000060E-1,3.199999928E-1,-1.582999974E-1
1.543541094E1,-4.457999766E-1,3.734999895E-1,-1.070999950E-1
1.544533750E1,-4.254999757E-1,4.657999873E-1,-2.478999943E-1
1.545526250E1,-3.844999969E-1,4.345999956E-1,-3.064000010E-1
1.546518906E1,-2.173999995E-1,4.847999811E-1,-2.644000053E-1
1.547511562E1,6.719999760E-2,4.643999934E-1,-1.377999932E-1
1.548504063E1,2.488999963E-1,4.091999829E-1,1.282999963E-1
1.549496719E1,4.346999824E-1,3.536999822E-1,3.899999857E-1
1.550489375E1,5.109999776E-1,3.386999965E-1,4.032999873E-1
1.551482031E1,5.004000068E-1,2.052000016E-1,4.375999868E-1
1.552474688E1,4.618999958E-1,1.983999908E-1,2.926999927E-1
1.553467344E1,3.386999965E-1,2.351999879E-1,1.906999946E-1
1.554460000E1,1.625999957E-1,3.175999820E-1,1.281999946E-1
1.555452656E1,-4.939999804E-2,3.260000050E-1,2.300000004E-2
1.556445156E1,-1.644999981E-1,3.443000019E-1,-3.590000048E-2
1.557437812E1,-2.415999919E-1,4.870999753E-1,6.899999920E-3
1.558430469E1,-3.770999908E-1,5.278999805E-1,-3.539999947E-2
1.559423125E1,-4.192999899E-1,5.662999749E-1,-1.472000033E-1
1.560415781E1,-3.228999972E-1,5.385000110E-1,-1.720999926E-1
1.561408438E1,-3.348999918E-1,6.326000094E-1,-1.166999936E-1
1.562401094E1,-2.149000019E-1,6.511999965E-1,8.700000122E-3
1.563393594E1,-1.432999969E-1,6.406999826E-1,1.919999905E-2
1.564386250E1,1.078999937E-1,4.936999977E-1,1.199999973E-1
1.565378906E1,1.990999877E-1,4.150999784E-1,8.549999446E-2
1.566371563E1,3.310000002E-1,3.734000027E-1,9.600000083E-2
1.567364219E1,2.710999846E-1,2.448999882E-1,1.391000003E-1
1.568356719E1,2.493999898E-1,2.463999987E-1,1.178999990E-1
1.569349375E1,2.324999869E-1,1.798999906E-1,9.519999474E-2
1.570342031E1,1.767999977E-1,1.665000021E-1,1.389999986E-1
1.571334688E1,8.359999955E-2,1.621999890E-1,7.679999620E-2
1.572327344E1,-1.102999970E-1,1.844999939E-1,3.649999946E-2
1.573320000E1,-1.577999890E-1,2.730000019E-1,-8.200000040E-3
1.574312656E1,-2.415999919E-1,2.417999953E-1,-5.839999765E-2
1.575305156E1,-2.674999833E-1,2.793999910E-1,4.160000011E-2
1.576297813E1,-2.967000008E-1,2.883999944E-1,2.699999837E-3
1.577290469E1,-1.706999987E-1,3.662999868E-1,-1.150000002E-2
1.578283125E1,-1.109999940E-1,3.251999915E-1,-1.235999987E-1
1.579275781E1,-5.299999937E-2,3.638999760E-1,-5.709999800E-2
1.580268438E1,-1.279999968E-2,2.821999788E-1,-3.130000085E-2
1.581260938E1,-1.429999992E-2,2.669999897E-1,-9.269999713E-2
1.582253594E1,1.176999956E-1,1.623999923E-1,-1.101999953E-1
1.583246250E1,3.075999916E-1,1.570999920E-1,-4.699999839E-2
1.584238906E1,3.409999907E-1,1.030000001E-1,1.480000000E-2
1.585231563E1,3.616999984E-1,6.369999796E-2,2.237999886E-1
1.586224219E1,3.166999817E-1,2.009999938E-2,2.210000008E-1
1.587216719E1,2.300999910E-1,1.099999994E-1,2.179999948E-1
1.588209375E1,8.179999888E-2,1.105000004E-1,9.489999712E-2
1.589202031E1,7.199999876E-3,2.477999926E-1,6.390000135E-2
1.590194688E1,-6.939999759E-2,2.728999853E-1,1.278999895E-1
1.591187344E1,-2.491999865E-1,2.976999879E-1,2.316999882E-1
1.592180000E1,-2.102999985E-1,4.320999980E-1,3.143999875E-1
1.593172656E1,-2.217999995E-1,4.690999985E-1,1.854999959E-1
1.594165156E1,-2.098999918E-1,5.335999727E-1,5.029999837E-2
1.595157969E1,-2.172999978E-1,4.755999744E-1,-8.139999956E-2
1.596150625E1,-1.365000010E-1,4.280999899E-1,-2.234999985E-1
1.597143125E1,-6.659999490E-2,4.605000019E-1,-3.154000044E-1
1.598135625E1,-6.639999896E-2,4.248999953E-1,-2.969000041E-1
1.599128438E1,-6.740000099E-2,4.151999950E-1,-5.680000037E-2
1.600120938E1,-5.439999700E-2,4.591999948E-1,1.272999942E-1
1.601113594E1,-2.429999970E-2,5.091999769E-1,2.575999796E-1
1.602106406E1,5.159999803E-2,5.036999583E-1,1.829999983E-1
1.603098906E1,7.199999690E-2,4.199000001E-1,2.499999851E-2
1.604091562E1,-9.599999525E-3,4.036999941E-1,4.829999804E-2
1.605084219E1,-6.300000008E-3,3.642999828E-1,-1.269999985E-2
1.606076875E1,2.089999989E-2,3.619000018E-1,3.379999846E-2
1.607069531E1,1.172999963E-1,3.024999797E-1,9.999999404E-2
1.608062188E1,1.406999975E-1,2.918999791E-1,-1.649999991E-2
1.609054688E1,1.551000029E-1,2.507999837E-1,1.119999960E-2
1.610047344E1,1.577000022E-1,2.004999965E-1,-3.150000051E-2
1.611040000E1,7.509999722E-2,1.987999976E-1,-3.539999947E-2
1.612032656E1,-1.049999986E-2,2.639999986E-1,-1.960000023E-2
1.613025156E1,-1.799999923E-2,2.529999912E-1,-6.799999624E-3
1.614017969E1,-6.719999760E-2,2.525999844E-1,6.570000201E-2
1.615010469E1,-1.053999960E-1,2.067999989E-1,1.788000017E-1
1.616003125E1,-3.749999776E-2,2.030999959E-1,2.280000001E-1
1.616995781E1,-8.339999616E-2,2.284999937E-1,1.171000004E-1
1.617988281E1,-1.599999960E-3,2.637999952E-1,5.790000036E-2
1.618981094E1,2.559999935E-2,2.467999905E-1,-4.189999774E-2
1.619973594E1,1.789999940E-2,2.351000011E-1,-6.579999626E-2
1.620966250E1,8.109999448E-2,2.304999977E-1,-3.739999980E-2
1.621959063E1,1.056999937E-1,1.799999923E-1,4.329999909E-2
1.622951562E1,5.729999766E-2,2.290999889E-1,1.014999971E-1
1.623944219E1,2.439999953E-2,1.704999954E-1,2.159999870E-2
1.624936719E1,-6.939999759E-2,2.976000011E-1,-2.400000021E-2
1.625929531E1,-1.228999943E-1,3.463000059E-1,-2.139999904E-2
1.626922031E1,-1.635999978E-1,3.161000013E-1,3.429999948E-2
1.627914688E1,-1.024999991E-1,3.418000042E-1,-2.730000019E-2
1.628907344E1,4.939999804E-2,2.805999815E-1,-2.180000022E-2
1.629900000E1,1.914999932E-1,2.786000073E-1,-2.479999885E-2
1.630892656E1,2.701999843E-1,2.483999878E-1,3.779999912E-2
1.631885156E1,1.429999918E-1,2.803999782E-1,2.107999921E-1
1.632877812E1,1.458999962E-1,3.278000057E-1,2.642000020E-1
1.633870625E1,4.399999976E-3,2.682999969E-1,2.038999945E-1
1.634863125E1,-8.739999682E-2,3.149999976E-1,7.549999654E-2
1.635855938E1,-3.879999742E-2,2.981999815E-1,-6.780000031E-2
1.636848438E1,-1.240999997E-1,3.631999791E-1,-1.028999984E-1
1.637840938E1,-1.755999923E-1,3.664000034E-1,-5.739999935E-2
1.638833750E1,-1.640999913E-1,3.828999996E-1,1.030000001E-1
1.639826250E1,-1.506000012E-1,3.624999821E-1,1.197999939E-1
1.640818906E1,-7.469999790E-2,3.346000016E-1,7.239999622E-2
1.641811563E1,7.169999927E-2,3.079999983E-1,5.079999939E-2
1.642804219E1,2.679999918E-2,2.299999893E-1,-6.019999832E-2
1.643796875E1,-2.749999985E-2,1.955000013E-1,-1.253999919E-1
1.644789375E1,-8.039999753E-2,2.802000046E-1,-1.480000000E-2
1.645782031E1,-1.039000005E-1,1.990999877E-1,7.999999798E-4
1.646774688E1,-2.400000021E-2,2.647999823E-1,1.279999968E-2
1.647767344E1,3.610000014E-2,2.915999889E-1,-2.939999849E-2
1.648760000E1,1.699000001E-1,3.279999793E-1,-8.609999716E-2
1.649752656E1,1.101999953E-1,2.753999829E-1,-2.819999866E-2
1.650745156E1,3.049999848E-2,3.928000033E-1,1.366999894E-1
1.651737812E1,-1.027999967E-1,3.867000043E-1,2.565999925E-1
1.652730625E1,-8.359999955E-2,4.824999869E-1,2.953999937E-1
1.653723125E1,-1.944999993E-1,4.431999922E-1,1.783999950E-1
1.654715781E1,-9.399999678E-2,5.952999592E-1,-3.179999813E-2
1.655708438E1,-8.959999681E-2,5.766999722E-1,-6.909999996E-2
1.656701094E1,5.040000007E-2,6.044999957E-1,4.250000045E-2
1.657693750E1,6.570000201E-2,5.038999915E-1,1.039999947E-1
1.658686250E1,1.650999933E-1,4.508999884E-1,8.679999411E-2
1.659679062E1,1.568000019E-1,4.821999967E-1,1.210999936E-1
1.660671562E1,1.375999898E-1,4.675999880E-1,1.608999968E-1
1.661664375E1,3.779999912E-2,3.822000027E-1,8.810000122E-2
1.662656875E1,2.229999937E-2,4.016000032E-1,1.079999935E-2
1.663649531E1,-2.439999953E-2,4.120999873E-1,5.899999756E-3
1.664642188E1,-1.809999943E-1,3.813000023E-1,-1.299999934E-2
1.665634844E1,-1.299999952E-1,3.646999896E-1,-1.127999946E-1
1.666627500E1,-1.061000004E-1,3.558000028E-1,-1.897999942E-1
1.667620156E1,-9.099999443E-3,2.894999981E-1,-1.657999903E-1
1.668612656E1,1.164999977E-1,2.637999952E-1,-4.539999738E-2
1.669605313E1,1.811999977E-1,2.488999963E-1,5.859999731E-2
1.670597969E1,1.516000032E-1,1.322000027E-1,1.905999929E-1
1.671590625E1,4.129999876E-2,2.563000023E-1,2.421999872E-1
1.672583281E1,-6.699999794E-3,2.357999980E-1,1.987999976E-1
1.673575938E1,-8.509999514E-2,2.709999979E-1,4.949999973E-2
1.674568438E1,-8.579999954E-2,2.626999915E-1,-1.011999995E-1
1.675561094E1,-5.130000040E-2,3.564999998E-1,-1.527999938E-1
1.676553750E1,-1.551000029E-1,3.712999821E-1,-4.839999974E-2
1.677546406E1,-8.819999546E-2,3.995999992E-1,1.722999960E-1
1.678538906E1,-8.039999753E-2,4.708999991E-1,2.404999882E-1
1.679531562E1,-3.329999745E-2,4.660999775E-1,1.708000004E-1
1.680524219E1,-6.079999730E-2,4.115999937E-1,-1.640000008E-2
1.681516875E1,5.359999835E-2,3.249000013E-1,-6.199999899E-2
1.682509531E1,9.219999611E-2,3.378999829E-1,-1.744999886E-1
1.683502188E1,1.454999894E-1,3.409000039E-1,-4.099999741E-2
1.684494844E1,1.120999977E-1,3.291999996E-1,1.673000008E-1
1.685487500E1,4.739999771E-2,3.188000023E-1,7.140000165E-2
1.686480000E1,4.079999775E-2,2.680999935E-1,-2.499999944E-3
1.687472656E1,8.720000088E-2,2.377999872E-1,-1.401000023E-1
1.688465312E1,5.579999834E-2,2.166999876E-1,-7.639999688E-2
1.689457969E1,1.079999954E-1,1.772999913E-1,1.733999997E-1
1.690450625E1,6.960000098E-2,2.331999987E-1,3.659999967E-1
1.691443125E1,9.250000119E-2,3.015999794E-1,2.969000041E-1
1.692435781E1,2.439999953E-2,2.201999873E-1,-3.309999779E-2
1.693428438E1,-5.150000006E-2,3.197999895E-1,-2.111999989E-1
1.694421094E1,-4.949999973E-2,2.967999876E-1,-1.353999972E-1
1.695413750E1,-8.529999852E-2,3.404999971E-1,8.259999752E-2
1.696406406E1,-9.300000034E-3,4.107999802E-1,3.878999949E-1
1.697399063E1,-6.289999932E-2,3.720999956E-1,3.977999985E-1
1.698391562E1,-7.349999994E-2,4.139999747E-1,1.737999916E-1
1.699384219E1,-3.909999877E-2,4.195999801E-1,-1.032999977E-1
1.700376875E1,-1.288999915E-1,3.653999865E-1,-3.213000000E-1
1.701369531E1,-1.292999983E-1,3.500999808E-1,-3.121999800E-1
1.702362188E1,-2.061999887E-1,3.432999849E-1,-2.140999883E-1
1.703354844E1,-1.273999959E-1,2.732999921E-1,-6.839999557E-2
1.704347500E1,-7.409999520E-2,2.981999815E-1,4.349999875E-2
1.705340000E1,-4.369999841E-2,2.676999867E-1,1.819999889E-2
1.706332656E1,1.659999974E-2,2.782000005E-1,3.720000014E-2
1.707325312E1,6.469999999E-2,2.500999868E-1,7.389999926E-2
1.708317969E1,1.740999967E-1,2.201000005E-1,1.819999889E-2
1.709310625E1,2.511000037E-1,2.190999985E-1,5.999999866E-2
1.710303281E1,2.319999933E-1,2.219999880E-1,1.465999931E-1
1.711295938E1,2.287999988E-1,2.488999963E-1,2.601999938E-1
1.712288438E1,1.154999956E-1,2.496999949E-1,3.181000054E-1
1.713281094E1,2.899999917E-2,2.698000073E-1,1.413999945E-1
1.714273750E1,-4.479999840E-2,2.851999998E-1,-3.830000013E-2
1.715266406E1,-1.391000003E-1,3.744999766E-1,-7.019999623E-2
1.716259062E1,-1.423999965E-1,3.906999826E-1,-3.099999949E-2
1.717251719E1,-2.175000012E-1,3.574000001E-1,1.111999974E-1
1.718244375E1,-2.287999988E-1,4.442999959E-1,1.110999957E-1
1.719236875E1,-1.677999943E-1,4.061999917E-1,3.009999916E-2
1.720229531E1,-1.155999973E-1,3.262999952E-1,-1.149000004E-1
1.721222188E1,8.200000040E-3,3.613999784E-1,-1.685999930E-1
1.722214844E1,1.347000003E-1,2.741000056E-1,-1.504999995E-1
1.723207500E1,1.824999899E-1,2.267999947E-1,-5.379999802E-2
1.724200156E1,1.261000037E-1,1.533000022E-1,4.600000009E-2
1.725192656E1,4.140000045E-2,2.299999893E-1,5.790000036E-2
1.726185313E1,-7.759999484E-2,2.522000074E-1,1.375999898E-1
1.727177969E1,-9.549999982E-2,2.761999965E-1,1.234999970E-1
1.728170625E1,-8.079999685E-2,2.509999871E-1,8.609999716E-2
1.729163281E1,-7.100000046E-3,2.554999888E-1,1.247999966E-1
1.730155938E1,1.979999989E-2,2.384999990E-1,-3.899999894E-3
1.731148438E1,8.889999986E-2,2.985000014E-1,5.199999735E-2
1.732141094E1,7.999999821E-2,2.220999897E-1,9.049999714E-2
1.733133750E1,1.421999931E-1,2.626999915E-1,5.579999834E-2
1.734126406E1,1.909999996E-1,1.711999923E-1,-7.279999554E-2
1.735119062E1,-1.799999923E-2,1.912999898E-1,-1.689999923E-2
1.736111719E1,-1.043999940E-1,2.777000070E-1,-2.969999984E-2
1.737104375E1,-3.115999997E-1,2.845999897E-1,2.369999886E-2
1.738097031E1,-3.339000046E-1,3.315999806E-1,3.639999777E-2
1.739089531E1,-3.410999775E-1,3.819999993E-1,-4.729999974E-2
1.740082188E1,-1.925999969E-1,3.208999932E-1,-1.740999967E-1
1.741074844E1,-1.139999926E-2,3.285000026E-1,-1.535999924E-1
1.742067500E1,1.313000023E-1,3.141999841E-1,-3.339999914E-2
1.743060156E1,3.258000016E-1,3.588999808E-1,1.664000005E-1
1.744052656E1,3.184999824E-1,3.369999826E-1,2.232999951E-1
1.745045313E1,3.334999979E-1,2.345999926E-1,2.997999787E-1
1.746037969E1,2.716000080E-1,2.357999980E-1,2.574000061E-1
1.747030625E1,1.085999981E-1,2.875999808E-1,1.765999943E-1
1.748023281E1,6.300000008E-3,3.465999961E-1,1.436000019E-1
1.749015938E1,-4.779999703E-2,3.244999945E-1,6.229999661E-2
1.750008594E1,-1.819999963E-1,4.134999812E-1,3.119999915E-2
1.751001094E1,-1.700999886E-1,5.381999612E-1,4.399999976E-3
1.751993750E1,-2.362999916E-1,5.651999712E-1,2.819999866E-2
1.752986406E1,-2.509999871E-1,5.040000081E-1,3.889999911E-2
1.753979063E1,-1.937000006E-1,4.228999913E-1,-2.689999901E-2
1.754971719E1,-1.128999963E-1,4.284999967E-1,-8.789999783E-2
1.755964375E1,-6.019999832E-2,4.126999974E-1,-1.787000000E-1
1.756957031E1,-5.829999968E-2,3.360999823E-1,-1.919000000E-1
1.757949531E1,7.899999619E-3,2.685999870E-1,-1.238999963E-1
1.758942188E1,-2.499999944E-3,2.543999851E-1,4.979999736E-2
1.759934844E1,1.245999932E-1,3.095999956E-1,6.849999726E-2
1.760927500E1,1.879999936E-1,2.400999963E-1,9.739999473E-2
1.761920156E1,2.597000003E-1,2.111999989E-1,7.669999450E-2
1.762912656E1,2.784000039E-1,1.648000032E-1,8.209999651E-2
1.763905469E1,1.278999895E-1,1.788000017E-1,1.741999984E-1
1.764897969E1,6.469999999E-2,2.259999961E-1,2.215999961E-1
1.765890625E1,-2.449999936E-2,2.215999961E-1,8.899999410E-2
1.766883281E1,-7.959999889E-2,2.048999965E-1,-2.449999936E-2
1.767875938E1,-3.199999919E-3,2.741999924E-1,-6.140000001E-2
1.768868594E1,-5.059999973E-2,3.400000036E-1,-4.899999872E-2
1.769861094E1,-5.119999871E-2,3.436000049E-1,-4.459999874E-2
1.770853906E1,-1.031999961E-1,3.296999931E-1,-8.299999870E-3
1.771846406E1,-1.099999994E-1,3.962000012E-1,2.070000023E-2
1.772839062E1,-2.699999884E-2,4.768999815E-1,1.771999896E-1
1.773831719E1,2.520000003E-2,4.217999876E-1,1.925999969E-1
1.774824375E1,6.430000067E-2,4.473999739E-1,1.977999955E-1
1.775817031E1,1.979999989E-1,3.134999871E-1,3.019999899E-2
1.776809688E1,9.019999951E-2,3.078999817E-1,1.579999924E-2
1.777802188E1,1.860000007E-2,3.016999960E-1,1.163999960E-1
1.778794844E1,-8.500000089E-2,4.675999880E-1,2.459999919E-2
1.779787344E1,-1.385999918E-1,4.242999852E-1,-3.070000000E-2
1.780780000E1,-7.159999758E-2,4.188999832E-1,-1.638000011E-1
1.781772656E1,-1.703999937E-1,3.342999816E-1,-1.579999924E-1
1.782765312E1,-6.239999831E-2,3.073999882E-1,-4.719999805E-2
1.783757969E1,-1.427000016E-1,3.167999983E-1,1.692999899E-1
1.784750625E1,-8.299999684E-2,3.262999952E-1,1.006999984E-1
1.785743281E1,-6.260000169E-2,2.694000006E-1,4.199999850E-3
1.786735781E1,-2.159999870E-2,3.010999858E-1,4.499999806E-3
1.787728438E1,1.193999946E-1,3.612999916E-1,9.999999776E-3
1.788721094E1,1.744000018E-1,2.681999803E-1,-1.409999933E-2
1.789713906E1,2.832999825E-1,2.063999921E-1,1.200000010E-2
1.790706406E1,2.845999897E-1,2.383999974E-1,1.479000002E-1
1.791699062E1,1.108999997E-1,3.373000026E-1,4.073999822E-1
1.792691719E1,4.429999739E-2,3.224000037E-1,4.111999869E-1
1.793684219E1,-7.999999798E-4,3.619000018E-1,7.499999553E-2
1.794676875E1,1.999999949E-4,3.944999874E-1,-1.825999916E-1
1.795669531E1,-1.045999974E-1,4.603999853E-1,-1.882999986E-1
1.796662188E1,-1.492999941E-1,4.305000007E-1,-9.449999779E-2
1.797654844E1,-1.771999896E-1,3.452999890E-1,1.994999945E-1
1.798647344E1,-2.180000022E-2,3.641999960E-1,1.741999984E-1
1.799640000E1,1.769999973E-2,3.001999855E-1,1.155999973E-1
1.800632656E1,6.069999933E-2,2.428999990E-1,-7.310000062E-2
1.801625313E1,-1.579999924E-2,2.920999825E-1,-1.039999947E-1
1.802617969E1,-1.020999998E-1,2.344999909E-1,-1.607999951E-1
1.803610625E1,-1.403999925E-1,2.854000032E-1,-1.103999987E-1
1.804603281E1,-1.316999942E-1,2.380999923E-1,-9.059999883E-2
1.805595781E1,-1.315999925E-1,2.624999881E-1,-9.950000048E-2
1.806588438E1,-1.964000016E-1,2.696999907E-1,-1.439999975E-2
1.807581094E1,-2.029999942E-1,3.071999848E-1,-8.659999818E-2
1.808573750E1,-1.676999927E-1,2.737999856E-1,-2.203999907E-1
1.809566406E1,-1.562999934E-1,2.518999875E-1,-1.810999960E-1
1.810559062E1,-3.199999919E-3,3.093000054E-1,-7.599999756E-2
1.811551719E1,1.166999936E-1,2.583000064E-1,1.446999907E-1
1.812544375E1,2.974999845E-1,2.694000006E-1,4.621999860E-1
1.813537031E1,3.572999835E-1,2.778999805E-1,5.597999692E-1
1.814529531E1,4.093999863E-1,1.762000024E-1,5.105000138E-1
1.815522188E1,3.752999902E-1,1.588999927E-1,2.960999906E-1
1.816514844E1,2.973999977E-1,1.879999936E-1,2.190000005E-2
1.817507500E1,2.180999964E-1,2.192000002E-1,-2.180000022E-2
1.818500156E1,3.449999914E-2,1.832000017E-1,-4.979999736E-2
1.819492812E1,-1.953999996E-1,2.055999935E-1,-6.219999865E-2
1.820485312E1,-2.626999915E-1,3.201999962E-1,-1.340999901E-1
1.821477969E1,-3.567999899E-1,3.856000006E-1,-1.808999926E-1
1.822470625E1,-2.719999850E-1,3.139999807E-1,-1.656000018E-1
1.823463281E1,-2.189999968E-1,2.838999927E-1,-1.263999939E-1
1.824455938E1,-1.162000000E-1,3.452999890E-1,-4.889999703E-2
1.825448438E1,3.929999843E-2,2.538999915E-1,1.970000006E-2
1.826441250E1,1.004000008E-1,3.412999809E-1,7.599999756E-2
1.827433750E1,1.604000032E-1,2.744999826E-1,1.491999924E-1
1.828426406E1,1.050999984E-1,3.084000051E-1,1.870999932E-1
1.829419063E1,-1.129999943E-2,3.502999842E-1,4.120000079E-2
1.830411719E1,-9.169999510E-2,3.423999846E-1,4.499999806E-3
1.831404375E1,-9.609999508E-2,3.346000016E-1,2.639999986E-2
1.832397031E1,-1.094999984E-1,3.436000049E-1,-2.099999925E-3
1.833389531E1,-4.050000012E-2,3.984999955E-1,-2.950000018E-2
1.834382188E1,-2.359999903E-2,2.994000018E-1,-5.699999630E-3
1.835374844E1,3.489999846E-2,3.982999921E-1,9.389999509E-2
1.836367500E1,1.019999981E-1,4.482999742E-1,1.498999894E-1
1.837360156E1,4.609999806E-2,3.328999877E-1,1.351999938E-1
1.838352812E1,4.930000007E-2,3.057000041E-1,2.439999953E-2
1.839345469E1,6.039999798E-2,3.459999859E-1,-1.719999872E-2
1.840337969E1,-5.399999674E-3,2.656999826E-1,-6.030000001E-2
1.841330625E1,4.999999702E-2,2.612999976E-1,-7.989999652E-2
1.842323281E1,9.420000017E-2,2.962000072E-1,-1.939999871E-2
1.843315938E1,9.719999880E-2,2.651000023E-1,2.819999866E-2
1.844308594E1,7.299999706E-3,2.866999805E-1,1.750999987E-1
1.845301250E1,-2.929999866E-2,3.407000005E-1,2.177999914E-1
1.846293906E1,-5.669999868E-2,3.276999891E-1,1.766999960E-1
1.847286406E1,-7.899999619E-3,3.215000033E-1,7.699999958E-3
1.848279062E1,-3.819999844E-2,2.656999826E-1,-1.889999956E-2
1.849271719E1,-9.099999443E-3,3.130999804E-1,-4.479999840E-2
1.850264375E1,-3.509999812E-2,3.630000055E-1,1.439999938E-1
1.851257031E1,2.779999934E-2,3.520999849E-1,8.509999514E-2
1.852249688E1,6.920000166E-2,3.234999776E-1,2.859999985E-2
1.853242344E1,5.029999837E-2,2.742999792E-1,-1.819999889E-2
1.854234844E1,9.039999545E-2,2.741000056E-1,-6.439999491E-2
1.855227500E1,4.619999975E-2,2.615999877E-1,3.019999899E-2
1.856220156E1,-1.420000009E-2,3.583999872E-1,6.129999831E-2
1.857212813E1,-9.499999881E-2,3.987999856E-1,1.282999963E-1
1.858205469E1,-1.251000017E-1,4.268999994E-1,-9.699999355E-3
1.859198125E1,-1.862999946E-1,3.765999973E-1,-5.869999900E-2
1.860190625E1,-2.330999970E-1,4.328999817E-1,-4.230000079E-2
1.861183281E1,-2.395000011E-1,4.411000013E-1,-1.429999992E-2
1.862175938E1,-2.445999980E-1,5.446000099E-1,-6.539999694E-2
1.863168594E1,-1.695999950E-1,5.627999902E-1,-6.679999828E-2
1.864161250E1,-1.269999985E-2,5.421000123E-1,-1.420000009E-2
1.865153906E1,1.062999964E-1,4.912999868E-1,5.439999700E-2
1.866146562E1,1.666999906E-1,4.904999733E-1,1.931999922E-1
1.867139062E1,2.761999965E-1,4.725999832E-1,2.557999790E-1
1.868131562E1,2.631999850E-1,4.484999776E-1,2.620999813E-1
1.869124219E1,2.895999849E-1,3.590999842E-1,2.377999872E-1
1.870117031E1,1.808999926E-1,3.191999793E-1,1.220999956E-1
1.871109688E1,1.931999922E-1,3.080999851E-1,1.044999957E-1
1.872102344E1,9.279999882E-2,2.241999954E-1,4.299999680E-3
1.873094844E1,2.199999988E-3,1.380999982E-1,5.599999800E-3
1.874087500E1,-4.759999737E-2,2.360000014E-1,4.679999873E-2
1.875080156E1,-1.820999980E-1,2.899000049E-1,-9.879999608E-2
1.876072812E1,-1.879999936E-1,3.009999990E-1,-1.228000000E-1
1.877065469E1,-2.549999952E-1,3.104999959E-1,-2.153999954E-1
1.878058125E1,-2.991999984E-1,2.590000033E-1,-2.730000019E-1
1.879050781E1,-1.706999987E-1,2.284999937E-1,-1.902000010E-1
1.880043281E1,-1.884000003E-1,1.551999897E-1,-6.469999999E-2
1.881035938E1,-1.040999964E-1,2.540999949E-1,1.719999909E-1
1.882028594E1,-1.239999942E-2,1.992999911E-1,2.303999960E-1
1.883021250E1,-2.699999837E-3,2.061999887E-1,2.160999924E-1
1.884013906E1,8.169999719E-2,2.109999955E-1,1.699999906E-2
1.885006563E1,7.819999754E-2,2.028999925E-1,-7.159999758E-2
1.885999063E1,1.723999977E-1,1.807999909E-1,-3.839999810E-2
1.886991719E1,1.585000008E-1,1.189999953E-1,1.399999950E-2
1.887984375E1,1.506000012E-1,6.520000100E-2,-1.300000004E-3
1.888977031E1,1.539999992E-1,1.659999974E-2,7.360000163E-2
1.889969688E1,9.999999404E-2,6.669999659E-2,1.059999969E-2
1.890962344E1,2.579999901E-2,1.867000014E-1,7.599999756E-2
1.891955000E1,-8.579999954E-2,2.667999864E-1,7.930000126E-2
1.892947656E1,-1.074999943E-1,2.081999928E-1,-4.129999876E-2
1.893940156E1,3.549999744E-2,2.954999804E-1,7.100000046E-3
1.894932812E1,2.149999887E-2,3.265999854E-1,6.979999691E-2
1.895925469E1,-1.819999889E-2,3.781999946E-1,1.727000028E-1
1.896917969E1,-4.399999976E-3,4.108999968E-1,1.907999963E-1
1.897910625E1,-3.350000083E-2,4.166999757E-1,1.388999969E-1
1.898903281E1,-6.409999728E-2,4.227999747E-1,1.166999936E-1
1.899895938E1,2.159999870E-2,4.960999787E-1,8.919999748E-2
1.900888594E1,1.899999916E-3,4.894999862E-1,1.223999932E-1
1.901881250E1,-1.809999906E-2,5.030999780E-1,1.613999903E-1
1.902873750E1,-2.049999870E-2,4.566999972E-1,8.280000091E-2
1.903866406E1,-2.999999851E-4,3.946000040E-1,-1.080999970E-1
1.904859219E1,2.109999955E-2,4.583999813E-1,-1.290999949E-1
1.905851875E1,-4.499999806E-3,4.948999882E-1,4.019999877E-2
1.906844375E1,-3.799999878E-2,4.219999909E-1,6.579999626E-2
1.907837031E1,6.879999489E-2,4.892999828E-1,1.643999964E-1
1.908829531E1,6.960000098E-2,4.228999913E-1,8.609999716E-2
1.909822188E1,5.460000038E-2,3.210999966E-1,1.151999980E-1
1.910815000E1,1.019999944E-2,3.921999931E-1,8.619999886E-2
1.911807500E1,-2.819999866E-2,3.851999938E-1,7.440000027E-2
1.912800156E1,-4.639999941E-2,3.524000049E-1,-7.589999586E-2
1.913792813E1,-7.079999894E-2,3.006999791E-1,-8.410000056E-2
1.914785469E1,-1.015999988E-1,3.075999916E-1,1.829999872E-2
1.915778125E1,-6.929999590E-2,3.817999959E-1,-2.269999869E-2
1.916770625E1,-8.810000122E-2,2.699999809E-1,1.439999975E-2
1.917763438E1,-2.999999933E-2,2.524999976E-1,9.739999473E-2
1.918755938E1,-3.000000026E-3,2.648999989E-1,7.800000161E-2
1.919748594E1,6.409999728E-2,2.534999847E-1,1.799999969E-3
1.920741250E1,1.359999925E-2,2.608999908E-1,-1.055999994E-1
1.921733750E1,-5.480000004E-2,2.398999929E-1,-4.399999976E-2
1.922726562E1,-1.044999957E-1,3.021000028E-1,-1.294000000E-1
1.923719219E1,-1.543999910E-1,2.565000057E-1,-1.002999991E-1
1.924711719E1,-2.989999950E-2,2.730000019E-1,-8.999999845E-4
1.925704375E1,4.600000102E-3,2.531000078E-1,3.819999844E-2
1.926697031E1,1.106999964E-1,2.329999954E-1,1.284999996E-1
1.927689688E1,1.648999900E-1,2.755999863E-1,1.806999892E-1
1.928682344E1,1.114999950E-1,2.730000019E-1,2.465999871E-1
1.929674844E1,1.999999881E-1,2.435999960E-1,2.786999941E-1
1.930667656E1,1.156999990E-1,3.042999804E-1,2.303999960E-1
1.931660156E1,8.799999952E-2,2.369999886E-1,1.568999887E-1
1.932652813E1,4.989999905E-2,2.960999906E-1,1.163999960E-1
1.933645469E1,-5.719999969E-2,3.394999802E-1,2.039999887E-2
1.934638125E1,-9.910000116E-2,3.254999816E-1,-1.089999974E-1
1.935630781E1,-1.613999903E-1,2.681999803E-1,-1.701999903E-1
1.936623281E1,-1.257999986E-1,2.171999961E-1,-2.294999957E-1
1.937615938E1,-7.100000046E-3,1.933999956E-1,-2.320999950E-1
1.938608594E1,1.599999890E-2,1.797000021E-1,-2.330999970E-1
1.939601250E1,-5.599999800E-3,1.720999926E-1,-5.700000003E-2
1.940593750E1,-3.309999779E-2,2.406999916E-1,2.374999970E-1
1.941586406E1,-9.839999676E-2,2.953999937E-1,3.375000060E-1
1.942579062E1,-6.219999865E-2,3.227999806E-1,2.272000015E-1
1.943571719E1,8.249999583E-2,3.104999959E-1,4.900000058E-3
1.944564375E1,1.990000010E-1,3.616999984E-1,-1.352999955E-1
1.945557031E1,2.403999865E-1,2.610999942E-1,-5.779999867E-2
1.946549688E1,1.507999897E-1,3.278000057E-1,1.261999905E-1
1.947542344E1,3.370000049E-2,4.303999841E-1,3.281999826E-1
1.948534844E1,-1.005999967E-1,4.360999763E-1,1.940999925E-1
1.949527500E1,-7.109999657E-2,4.882999957E-1,-4.849999771E-2
1.950520156E1,-5.639999732E-2,5.173000097E-1,-1.169999987E-1
1.951512812E1,-3.219999745E-2,4.953999817E-1,-3.179999813E-2
1.952505469E1,-1.579999924E-2,5.077999830E-1,2.699999884E-2
1.953498125E1,-9.149999917E-2,5.455999970E-1,2.054999918E-1
1.954490625E1,-1.209999993E-1,5.810999870E-1,2.721000016E-1
1.955483281E1,-2.219999954E-2,5.900999904E-1,2.396999896E-1
1.956475938E1,-3.799999831E-3,6.351999640E-1,1.268000007E-1
1.957468594E1,4.600000102E-3,5.924999714E-1,8.109999448E-2
1.958461250E1,4.600000102E-3,5.841999650E-1,4.109999910E-2
1.959453906E1,-1.193000004E-1,4.323000014E-1,-7.999999821E-2
1.960446562E1,-1.785999984E-1,4.573999941E-1,-3.999999724E-3
1.961439219E1,-2.090999931E-1,5.112000108E-1,-8.289999515E-2
1.962431719E1,-1.832999885E-1,5.367000103E-1,-1.620000042E-2
1.963424375E1,-8.389999717E-2,4.614999890E-1,-1.270000041E-1
1.964417031E1,-8.999999613E-3,4.350999892E-1,-1.895999908E-1
1.965409688E1,5.359999835E-2,4.302999973E-1,3.500000015E-2
1.966402344E1,1.431999952E-1,2.997999787E-1,7.930000126E-2
1.967395000E1,2.228000015E-1,2.457999885E-1,6.480000168E-2
1.968387656E1,2.527000010E-1,2.456999868E-1,1.107999980E-1
1.969380156E1,2.409999967E-1,1.852999926E-1,2.427999973E-1
1.970372812E1,1.418000013E-1,1.784999967E-1,4.041000009E-1
1.971365469E1,1.221999973E-1,1.498000026E-1,1.871999949E-1
1.972358125E1,1.035999954E-1,1.366000026E-1,-8.929999918E-2
1.973350781E1,3.739999980E-2,2.047999948E-1,-2.662000060E-1
1.974343438E1,-7.449999452E-2,2.258999944E-1,-2.424999923E-1
1.975335938E1,-1.392000020E-1,3.692999780E-1,-7.479999959E-2
1.976328594E1,-2.124999911E-1,4.108999968E-1,1.194999963E-1
1.977321250E1,-2.264999896E-1,4.499000013E-1,2.034999877E-1
1.978313906E1,-1.315999925E-1,5.098999739E-1,3.669999912E-2
1.979306562E1,-6.199999899E-2,4.353999794E-1,6.509999931E-2
