"Time (s)","Acceleration x (m/s^2)","Acceleration y (m/s^2)","Acceleration z (m/s^2)"
0.000000000E0,-1.195855886E-1,9.915806770E0,2.505206585E0
4.962500000E-3,1.842960715E-1,9.970844269E0,2.667916536E0
9.925000000E-3,2.991507351E-1,1.001870060E1,2.557850122E0
1.488906200E-2,3.135063350E-1,9.954094887E0,2.316169977E0
1.985156200E-2,2.800066769E-1,9.951700211E0,2.014672756E0
2.481562500E-2,3.111217320E-1,9.954094887E0,1.624647856E0
2.977812500E-2,3.852941096E-1,1.004501629E1,1.246574640E0
3.474062500E-2,3.996497095E-1,1.011919880E1,1.153258204E0
3.970468700E-2,4.307551980E-1,1.007373714E1,1.026442170E0
4.466718700E-2,4.714374840E-1,1.005698872E1,7.680120468E-1
4.963125000E-2,4.140053689E-1,1.004501629E1,5.909464359E-1
5.459375000E-2,3.541886210E-1,9.922988892E0,3.971310258E-1
5.955781200E-2,3.685442507E-1,9.846412659E0,3.971310258E-1
6.452031200E-2,3.613712192E-1,9.767452240E0,3.636313379E-1
6.948281200E-2,2.919777036E-1,9.863162994E0,3.492661417E-1
7.444687500E-2,2.177957445E-1,9.815307617E0,5.191587210E-1
7.940937500E-2,8.064341545E-1,9.769846916E0,1.114970207E0
8.437343700E-2,3.494002223E-1,9.741134644E0,1.026442170E0
8.933593700E-2,1.938728839E-1,9.650202751E0,6.794840097E-1
9.430000000E-2,2.177957445E-1,9.669347763E0,2.966320217E-1
9.926250000E-2,2.345455736E-1,9.654992104E0,1.410950869E-1
1.042265620E-1,2.345455736E-1,9.611914635E0,1.985176206E-1
1.091890620E-1,-4.779784381E-2,9.733952522E0,8.397997618E-1
1.141531250E-1,2.159569971E-2,9.686098099E0,1.253757238E0
1.191156250E-1,4.570818543E-1,9.609530449E0,2.837809086E0
1.240781250E-1,3.972555101E-1,9.710029602E0,2.332919598E0
1.290421870E-1,3.135063350E-1,9.827268600E0,2.069710732E0
1.340046870E-1,1.890844703E-1,9.805740356E0,1.562427282E0
1.389687500E-1,7.663360238E-2,9.896661758E0,1.083864689E0
1.439312500E-1,-5.975927413E-2,9.848807335E0,6.124846935E-1
1.488937500E-1,-1.004415527E-1,9.858384132E0,2.057002187E-1
1.538578120E-1,-9.804734588E-2,9.846412659E0,8.127836138E-2
1.588203120E-1,-3.822103515E-2,9.946911812E0,-8.383536339E-2
1.637843750E-1,2.638410218E-2,9.901451111E0,4.702212289E-3
1.687468750E-1,8.859504014E-2,9.925383568E0,2.080944330E-1
1.737109370E-1,1.436233670E-1,9.896661758E0,4.641303718E-1
1.786734370E-1,1.531905979E-1,9.894268990E0,6.627342105E-1
1.836359370E-1,6.705679744E-2,9.934949875E0,1.000115514E0
1.886000000E-1,8.380663395E-2,9.939739227E0,1.189152122E0
1.935625000E-1,1.316523552E-1,9.949306488E0,1.416467190E0
1.985265620E-1,9.815269709E-2,1.004980564E1,1.476293445E0
2.034890620E-1,1.244793311E-1,1.002109337E1,1.600715280E0
2.084531250E-1,1.460079998E-1,1.000673866E1,1.605503798E0
2.134156250E-1,1.388349682E-1,1.000913239E1,1.543292880E0
2.183781250E-1,1.364407688E-1,9.968450546E0,1.469110847E0
2.233421870E-1,1.412291676E-1,1.000913239E1,1.294439435E0
2.283062500E-1,1.220851392E-1,9.954094887E0,1.294439435E0
2.332687500E-1,7.902780920E-2,9.930162430E0,1.232218981E0
2.382312500E-1,8.380663395E-2,9.884700775E0,1.126941204E0
2.431953120E-1,9.576806426E-2,9.925383568E0,1.081470490E0
2.481578120E-1,1.077295020E-1,9.889489174E0,1.110191226E0
2.531203120E-1,4.791276529E-2,9.906239510E0,1.088653088E0
2.580843750E-1,5.270116776E-2,9.884700775E0,1.067114830E0
2.630468750E-1,1.244793311E-1,9.887095451E0,1.047970772E0
2.680109370E-1,2.225841433E-1,9.803345680E0,1.069509029E0
2.729734370E-1,2.417281866E-1,9.753096581E0,1.117364407E0
2.779375000E-1,2.656510174E-1,9.767452240E0,1.055153489E0
2.829000000E-1,3.278715611E-1,9.767452240E0,9.809715152E-1
2.878625000E-1,3.206889629E-1,9.731558800E0,8.613380194E-1
2.928265620E-1,3.206889629E-1,9.788990021E0,7.464833260E-1
2.977890620E-1,2.393339872E-1,9.733952522E0,6.842628121E-1
3.027531250E-1,1.603731960E-1,9.762663841E0,6.172634959E-1
3.077156250E-1,1.795076579E-1,9.743529320E0,5.598409176E-1
3.126781250E-1,1.747288406E-1,9.767452240E0,5.741965771E-1
3.176421870E-1,2.058342993E-1,9.726778984E0,6.196576953E-1
3.226046870E-1,7.663360238E-2,9.745914459E0,5.909464359E-1
3.275687500E-1,7.663360238E-2,9.721991539E0,6.699072123E-1
3.325312500E-1,4.073973373E-2,9.829663277E0,6.483689547E-1
3.374953120E-1,-2.625960298E-2,9.805740356E0,5.813696384E-1
3.424578120E-1,-1.291528195E-1,9.772240639E0,5.024088621E-1
3.474203120E-1,-1.363354176E-1,9.867951393E0,5.048030615E-1
3.523843750E-1,-2.224692255E-1,9.784202576E0,4.306307137E-1
3.573468750E-1,-2.966511548E-1,9.786596298E0,3.229490519E-1
3.623109370E-1,-2.344402373E-1,9.803345680E0,3.995156586E-1
3.672734370E-1,-2.368248552E-1,9.796163559E0,2.679111660E-1
3.722375000E-1,-2.846897244E-1,9.872738838E0,2.990166247E-1
3.772000000E-1,-2.511900663E-1,9.853595734E0,3.899484277E-1
3.821625000E-1,-2.081135809E-1,9.863162994E0,3.947368264E-1
3.871265620E-1,-1.530852467E-1,9.870346069E0,4.665149748E-1
3.920890620E-1,1.680729724E-2,9.834450722E0,5.789849758E-1
3.970531250E-1,2.638410218E-2,9.839240074E0,5.741965771E-1
4.020156250E-1,1.316523552E-1,9.781807899E0,6.196576953E-1
4.069796870E-1,1.460079998E-1,9.710029602E0,6.531573534E-1
4.119421870E-1,2.728336453E-1,9.731558800E0,6.340133548E-1
4.169046870E-1,4.594760537E-1,9.698058128E0,7.440891862E-1
4.218687500E-1,5.192927718E-1,9.707635880E0,8.063001037E-1
4.268312500E-1,6.317532063E-1,9.726778984E0,7.369065285E-1
4.317953120E-1,6.413300037E-1,9.748308182E0,9.594427943E-1
4.367593750E-1,6.293590069E-1,9.784202576E0,1.107797146E0
4.417218750E-1,6.221859455E-1,9.755491257E0,1.237007499E0
4.466843750E-1,6.676471233E-1,9.791384697E0,1.311189294E0
4.516468750E-1,8.112130165E-1,9.688490868E0,1.277689695E0
4.566109370E-1,8.160014153E-1,9.753096581E0,1.179575324E0
4.615734370E-1,8.614625335E-1,9.714808464E0,1.162825465E0
4.665375000E-1,8.662509322E-1,9.745914459E0,1.088653088E0
4.715000000E-1,8.255782127E-1,9.681308746E0,1.036009431E0
4.764640620E-1,8.399338126E-1,9.659780502E0,9.905482531E-1
4.814265620E-1,8.590778708E-1,9.707635880E0,1.014471173E0
4.863890620E-1,7.394348383E-1,9.721991539E0,9.929425120E-1
4.913531250E-1,6.126092076E-1,9.729164124E0,1.007298112E0
4.963156250E-1,5.623596907E-1,9.741134644E0,1.031220913E0
5.012796870E-1,3.996497095E-1,9.846412659E0,1.024047971E0
5.062421870E-1,3.254773617E-1,9.791384697E0,8.948376179E-1
5.112062500E-1,2.441223711E-1,9.788990021E0,7.393007874E-1
5.161687500E-1,1.412291676E-1,9.822490692E0,7.010126710E-1
5.211312500E-1,5.509537086E-2,9.846412659E0,7.034068704E-1
5.260953120E-1,5.748957023E-2,9.937344551E0,6.579458117E-1
5.310578120E-1,1.920149848E-2,9.911018372E0,5.694081783E-1
5.360218750E-1,1.029410958E-1,9.879913330E0,7.249451280E-1
5.409843750E-1,7.184520364E-2,9.841633797E0,6.124846935E-1
5.459484370E-1,7.663360238E-2,9.920595169E0,8.063001037E-1
5.509109370E-1,1.364407688E-1,9.884700775E0,1.002509713E0
5.558734370E-1,1.651520431E-1,9.942132950E0,1.081470490E0
5.608375000E-1,7.663360238E-2,9.954094887E0,1.213074923E0
5.658000000E-1,1.077295020E-1,9.944517136E0,1.277689695E0
5.707640620E-1,1.268735379E-1,9.925383568E0,1.325544953E0
5.757265620E-1,1.699404269E-1,9.872738838E0,1.253757238E0
5.806906250E-1,2.010459006E-1,9.870346069E0,1.241795778E0
5.856531250E-1,2.584780157E-1,9.834450722E0,1.210690260E0
5.906156250E-1,2.991507351E-1,9.796163559E0,1.134114146E0
5.955796870E-1,4.020439088E-1,9.793779373E0,1.050364971E0
6.005421870E-1,4.331493974E-1,9.781807899E0,1.059941769E0
6.055062500E-1,4.833988845E-1,9.741134644E0,9.618370533E-1
6.104687500E-1,5.288599730E-1,9.714808464E0,1.004903913E0
6.154312500E-1,5.743306875E-1,9.714808464E0,1.043192029E0
6.203953120E-1,5.480040312E-1,9.733952522E0,1.076691628E0
6.253578120E-1,5.647538304E-1,9.721991539E0,1.043192029E0
6.303218750E-1,4.905815125E-1,9.721991539E0,1.091047287E0
6.352843750E-1,5.360426307E-1,9.681308746E0,1.045586228E0
6.402468750E-1,5.551866293E-1,9.695664406E0,9.905482531E-1
6.452109370E-1,6.102245450E-1,9.635848045E0,1.074297428E0
6.501734370E-1,6.078303456E-1,9.669347763E0,1.213074923E0
6.551375000E-1,5.599750280E-1,9.619097710E0,1.275295496E0
6.601000000E-1,5.145043731E-1,9.659780502E0,1.213074923E0
6.650625000E-1,5.599750280E-1,9.580809593E0,1.177190661E0
6.700265620E-1,4.786105156E-1,9.585598946E0,1.186757922E0
6.749890620E-1,4.283609986E-1,9.654992104E0,1.186757922E0
6.799531250E-1,4.092265368E-1,9.585598946E0,1.270507097E0
6.849156250E-1,3.470060229E-1,9.626279831E0,1.237007499E0
6.898796870E-1,2.632568479E-1,9.652597427E0,1.210690260E0
6.948406250E-1,1.699404269E-1,9.611914635E0,1.131719947E0
6.998046870E-1,1.196909323E-1,9.590386391E0,1.028836250E0
7.047671870E-1,6.705679744E-2,9.662164688E0,1.045586228E0
7.097312500E-1,-7.115567569E-3,9.686098099E0,9.211547375E-1
7.146953120E-1,7.240065839E-3,9.702846527E0,7.751946449E-1
7.196578120E-1,2.451662440E-3,9.717203140E0,7.034068704E-1
7.246218750E-1,5.746084207E-5,9.777029037E0,6.005136967E-1
7.295843750E-1,5.030696467E-2,9.721991539E0,4.784860015E-1
7.345484370E-1,3.355713189E-2,9.738740921E0,3.516603410E-1
7.395093750E-1,5.746084207E-5,9.786596298E0,2.774879634E-1
7.444734370E-1,6.227797270E-2,9.777029037E0,2.726995945E-1
7.494359370E-1,5.748957023E-2,9.760279655E0,3.468815386E-1
7.544000000E-1,9.338344634E-2,9.791384697E0,3.253432810E-1
7.593625000E-1,1.484021842E-1,9.812912941E0,4.641303718E-1
7.643265620E-1,1.555848122E-1,9.834450722E0,5.646198392E-1
7.692906250E-1,1.675462276E-1,9.824884415E0,6.483689547E-1
7.742531250E-1,6.705679744E-2,9.913412094E0,8.350113630E-1
7.792156250E-1,4.073973373E-2,9.932557106E0,9.594427943E-1
7.841796870E-1,-9.509769268E-3,9.966055870E0,9.929425120E-1
7.891421870E-1,-4.061523825E-2,9.934949875E0,9.307219982E-1
7.941062500E-1,-9.086474776E-2,9.903844833E0,9.618370533E-1
7.990687500E-1,-1.459026486E-1,9.961267471E0,1.007298112E0
8.040328120E-1,-1.650466919E-1,9.915806770E0,1.014471173E0
8.089953120E-1,-1.411142498E-1,9.992383003E0,1.036009431E0
8.139578120E-1,-5.019204319E-2,9.846412659E0,1.112575889E0
8.189218750E-1,1.202846877E-2,9.980412483E0,1.162825465E0
8.238843750E-1,6.945100427E-2,9.901451111E0,1.289651155E0
8.288484370E-1,-1.908657700E-2,9.908634186E0,1.452361107E0
8.338109370E-1,2.638410218E-2,9.867951393E0,1.488254905E0
8.387734370E-1,-2.625960298E-2,9.882307053E0,1.572004199E0
8.437359370E-1,5.746084207E-5,9.896661758E0,1.543292880E0
8.487000000E-1,-9.086474776E-2,9.793779373E0,1.528927565E0
8.536625000E-1,-1.889695525E-1,9.791384697E0,1.572004199E0
8.586265620E-1,-1.913637519E-1,9.808135033E0,1.512177706E0
8.635890620E-1,-1.387200505E-1,9.788990021E0,1.485860705E0
8.685531250E-1,-1.315470189E-1,9.879913330E0,1.411678791E0
8.735171870E-1,-1.985463500E-1,9.863162994E0,1.349467874E0
8.784781250E-1,-2.655456960E-1,9.786596298E0,1.258545637E0
8.834421870E-1,-3.516891003E-1,9.719596863E0,1.150864005E0
8.884046870E-1,-3.229682446E-1,9.707635880E0,1.093441486E0
8.933671870E-1,-3.349392414E-1,9.695664406E0,9.307219982E-1
8.983312500E-1,-2.775071263E-1,9.755491257E0,9.259431362E-1
9.032937500E-1,-2.464016527E-1,9.760279655E0,8.948376179E-1
9.082578120E-1,-2.846897244E-1,9.750701904E0,8.374055624E-1
9.132203120E-1,-3.181893826E-1,9.717203140E0,8.852608800E-1
9.181843750E-1,-3.373238444E-1,9.714808464E0,9.355103970E-1
9.231468750E-1,-4.354382753E-1,9.779414177E0,8.517611623E-1
9.281093750E-1,-4.665437341E-1,9.767452240E0,7.871560454E-1
9.330734370E-1,-5.167931914E-1,9.743529320E0,6.890512705E-1
9.380359370E-1,-4.569669068E-1,9.803345680E0,6.292344928E-1
9.430000000E-1,-4.665437341E-1,9.762663841E0,5.478699207E-1
9.479625000E-1,-4.497938752E-1,9.753096581E0,4.306307137E-1
9.529265620E-1,-4.689379334E-1,9.748308182E0,4.114866555E-1
9.578906250E-1,-4.354382753E-1,9.772240639E0,4.760918021E-1
9.628515620E-1,-5.120047927E-1,9.803345680E0,5.694081783E-1
9.678156250E-1,-5.311488509E-1,9.779414177E0,5.789849758E-1
9.727781250E-1,-5.622543097E-1,9.805740356E0,7.728003860E-1
9.777421870E-1,-5.143990517E-1,9.798557281E0,9.259431362E-1
9.827046870E-1,-5.670427084E-1,9.860768318E0,9.379045963E-1
9.876687500E-1,-5.766099691E-1,9.832057953E0,9.379045963E-1
9.926312500E-1,-5.861771703E-1,9.805740356E0,9.594427943E-1
9.975937500E-1,-5.550717115E-1,9.827268600E0,9.666158557E-1
1.002557812E0,-6.077154279E-1,9.793779373E0,9.690100551E-1
1.007520312E0,-5.574659705E-1,9.772240639E0,9.809715152E-1
1.012484375E0,-5.359276533E-1,9.767452240E0,9.809715152E-1
1.017446875E0,-5.526775122E-1,9.774634361E0,9.737984538E-1
1.022410937E0,-4.115057886E-1,9.800951958E0,1.047970772E0
1.027373437E0,-4.785051644E-1,9.765057564E0,1.093441486E0
1.032335937E0,-4.210730195E-1,9.786596298E0,1.189152122E0
1.037300000E0,-4.186884165E-1,9.800951958E0,1.162825465E0
1.042262500E0,-3.875733614E-1,9.760279655E0,1.081470490E0
1.047226562E0,-3.827945590E-1,9.824884415E0,1.189152122E0
1.052189062E0,-3.492948711E-1,9.867951393E0,1.270507097E0
1.057153125E0,-2.248634249E-1,9.855990410E0,1.308795214E0
1.062115625E0,-1.865849346E-1,9.851201057E0,1.438005328E0
1.067079687E0,-1.339412183E-1,9.848807335E0,1.461928368E0
1.072042187E0,-9.086474776E-2,9.844018936E0,1.519360304E0
1.077004687E0,-4.300943762E-2,9.812912941E0,1.572004199E0
1.081968750E0,-1.195855886E-1,9.798557281E0,1.703608632E0
1.086931250E0,-1.482968628E-1,9.820096016E0,1.765819550E0
1.091893750E0,-1.674408913E-1,9.817702293E0,1.885462523E0
1.096857812E0,-1.506910622E-1,9.827268600E0,1.859145522E0
1.101820312E0,-1.459026486E-1,9.882307053E0,1.902212381E0
1.106784375E0,-2.224692255E-1,9.896661758E0,1.880674243E0
1.111746875E0,-2.129019946E-1,9.788990021E0,1.689252973E0
1.116710937E0,-1.961521655E-1,9.796163559E0,1.653359175E0
1.121675000E0,-3.038241863E-1,9.848807335E0,1.595927000E0
1.126637500E0,-3.134010136E-1,9.839240074E0,1.555254221E0
1.131600000E0,-4.091115892E-1,9.903844833E0,1.521754622E0
1.136562500E0,-4.378228784E-1,9.915806770E0,1.430822849E0
1.141526562E0,-4.808993638E-1,9.956489563E0,1.344689012E0
1.146489062E0,-5.359276533E-1,9.966055870E0,1.339900613E0
1.151453125E0,-5.478987098E-1,9.985199928E0,1.217863441E0
1.156415625E0,-5.502929091E-1,9.954094887E0,1.213074923E0
1.161378125E0,-5.072164536E-1,9.985199928E0,1.040797710E0
1.166342187E0,-4.545727372E-1,9.954094887E0,1.024047971E0
1.171304687E0,-4.569669068E-1,9.944517136E0,1.088653088E0
1.176268750E0,-5.311488509E-1,9.901451111E0,1.036009431E0
1.181231250E0,-5.407160521E-1,9.903844833E0,1.103008628E0
1.186193750E0,-5.239662528E-1,9.901451111E0,1.143691063E0
1.191157812E0,-4.737167358E-1,9.901451111E0,1.129325747E0
1.196120312E0,-3.923617899E-1,9.954094887E0,1.047970772E0
1.201084375E0,-3.827945590E-1,9.903844833E0,9.618370533E-1
1.206046875E0,-4.402170777E-1,9.930162430E0,8.421939611E-1
1.211010937E0,-3.708235621E-1,9.805740356E0,7.991175056E-1
1.215973437E0,-4.162942171E-1,9.879913330E0,8.015117049E-1
1.220935937E0,-3.277566135E-1,9.800951958E0,7.512621880E-1
1.225900000E0,-2.081135809E-1,9.765057564E0,7.369065285E-1
1.230862500E0,-1.339412183E-1,9.865556717E0,7.680120468E-1
1.235826562E0,-9.086474776E-2,9.779414177E0,7.895502448E-1
1.240789062E0,-2.147120051E-2,9.788990021E0,9.020106792E-1
1.245753125E0,4.845864139E-3,9.805740356E0,1.062336087E0
1.250715625E0,5.270116776E-2,9.767452240E0,1.165219545E0
1.255678125E0,1.316523552E-1,9.808135033E0,1.296824098E0
1.260642187E0,2.465070039E-1,9.812912941E0,1.399717450E0
1.265604687E0,2.608722150E-1,9.879913330E0,1.457149386E0
1.270568750E0,1.747288406E-1,9.839240074E0,1.445178509E0
1.275531250E0,1.029410958E-1,9.891883850E0,1.457149386E0
1.280495312E0,7.184520364E-2,9.872738838E0,1.371006131E0
1.285457812E0,-3.583640978E-2,9.860768318E0,1.325544953E0
1.290420312E0,-5.258624628E-2,9.908634186E0,1.222651720E0
1.295384375E0,-5.019204319E-2,9.844018936E0,1.210690260E0
1.300346875E0,-8.129751682E-2,9.817702293E0,1.215469122E0
1.305310937E0,-9.325893968E-2,9.824884415E0,1.260939837E0
1.310273437E0,-7.650911063E-2,9.784202576E0,1.354256272E0
1.315237500E0,-2.336740959E-3,9.834450722E0,1.406899929E0
1.320200000E0,4.313393682E-2,9.808135033E0,1.394928932E0
1.325162500E0,5.509537086E-2,9.815307617E0,1.430822849E0
1.330126562E0,5.988377333E-2,9.839240074E0,1.366217613E0
1.335089062E0,4.845864139E-3,9.887095451E0,1.423649788E0
1.340053125E0,-5.736507475E-2,9.867951393E0,1.385361671E0
1.345015625E0,-7.650911063E-2,9.946911812E0,1.313573956E0
1.349978125E0,-2.176903933E-1,9.875133514E0,1.172402263E0
1.354942187E0,-3.253624141E-1,9.875133514E0,1.239401579E0
1.359904687E0,-3.492948711E-1,9.800951958E0,1.241795778E0
1.364868750E0,-4.234672487E-1,9.913412094E0,1.320756555E0
1.369831250E0,-5.287546515E-1,9.999555588E0,1.572004199E0
1.374795312E0,-6.292536855E-1,1.000913239E1,1.851962924E0
1.379757812E0,-7.441083193E-1,9.963662148E0,1.962029219E0
1.384720312E0,-7.847905755E-1,1.000913239E1,1.928529382E0
1.389684375E0,-8.135018349E-1,9.987594604E0,1.804107547E0
1.394646875E0,-7.369257212E-1,1.001870060E1,1.509793162E0
1.399610937E0,-7.345410585E-1,1.001391125E1,1.270507097E0
1.404573437E0,-6.507919431E-1,9.987594604E0,1.033615232E0
1.409537500E0,-6.412150860E-1,9.908634186E0,8.804724813E-1
1.414500000E0,-6.053212285E-1,9.915806770E0,8.302229643E-1
1.419462500E0,-5.072164536E-1,9.896661758E0,7.751946449E-1
1.424426562E0,-4.426112771E-1,9.872738838E0,8.063001037E-1
1.429389062E0,-2.822955251E-1,9.836845398E0,8.254441619E-1
1.434353125E0,-2.679399252E-1,9.810519218E0,8.924434781E-1
1.439315625E0,-1.339412183E-1,9.834450722E0,8.732994199E-1
1.444279687E0,6.227797270E-2,9.800951958E0,9.714042544E-1
1.449242187E0,1.101237014E-1,9.803345680E0,9.211547375E-1
1.454204687E0,2.895835042E-1,9.717203140E0,8.804724813E-1
1.459168750E0,4.379377961E-1,9.690885544E0,7.967232466E-1
1.464131250E0,5.312542319E-1,9.721991539E0,6.890512705E-1
1.469095312E0,5.982535481E-1,9.712413788E0,7.177625299E-1
1.474057812E0,4.929757118E-1,9.690885544E0,9.905482531E-1
1.479021875E0,5.001487136E-1,9.686098099E0,9.498660564E-1
1.483984375E0,3.948709071E-1,9.726778984E0,1.045586228E0
1.488946875E0,3.350445926E-1,9.671741486E0,1.141296744E0
1.493910937E0,2.106227130E-1,9.693280220E0,1.191546321E0
1.498873437E0,7.663360238E-2,9.760279655E0,1.170008063E0
1.503837500E0,2.159569971E-2,9.710029602E0,1.062336087E0
1.508800000E0,-7.115567569E-3,9.738740921E0,1.081470490E0
1.513764062E0,-5.258624628E-2,9.721991539E0,1.081470490E0
1.518726562E0,5.746084207E-5,9.674136162E0,1.071903229E0
1.523689062E0,1.202846877E-2,9.650202751E0,1.028836250E0
1.528653125E0,8.380663395E-2,9.614309311E0,9.402987957E-1
1.533615625E0,5.030696467E-2,9.602347374E0,1.012086511E0
1.538579687E0,1.053352952E-1,9.643030167E0,9.618370533E-1
1.543542187E0,1.202846877E-2,9.647809982E0,1.074297428E0
1.548506250E0,-1.387200505E-1,9.664558411E0,1.038403511E0
1.553468750E0,-2.033347636E-1,9.643030167E0,1.024047971E0
1.558432812E0,-2.703245282E-1,9.628664970E0,9.857599139E-1
1.563395312E0,-2.583630979E-1,9.662164688E0,8.996165395E-1
1.568357812E0,-2.679399252E-1,9.657385826E0,7.393007874E-1
1.573321875E0,-3.181893826E-1,9.602347374E0,6.172634959E-1
1.578284375E0,-3.780061305E-1,9.616703987E0,4.760918021E-1
1.583248437E0,-4.115057886E-1,9.623887062E0,3.636313379E-1
1.588210937E0,-4.689379334E-1,9.619097710E0,4.952358305E-1
1.593173437E0,-4.354382753E-1,9.666953087E0,5.765908360E-1
1.598137500E0,-4.139000177E-1,9.666953087E0,7.058010697E-1
1.603100000E0,-3.492948711E-1,9.705241203E0,8.110885024E-1
1.608062500E0,-3.732177317E-1,9.707635880E0,8.756936789E-1
1.613026562E0,-2.966511548E-1,9.705241203E0,1.038403511E0
1.617989062E0,-1.746139228E-1,9.726778984E0,9.953366518E-1
1.622953125E0,-2.386540174E-2,9.705241203E0,8.996165395E-1
1.627915625E0,9.338344634E-2,9.750701904E0,8.924434781E-1
1.632879687E0,1.436233670E-1,9.698058128E0,9.355103970E-1
1.637842187E0,2.082285136E-1,9.688490868E0,9.474717975E-1
1.642804687E0,2.824008763E-1,9.676529884E0,9.666158557E-1
1.647768750E0,3.063333035E-1,9.688490868E0,1.002509713E0
1.652732812E0,4.570818543E-1,9.645415306E0,9.570485950E-1
1.657695312E0,5.168985724E-1,9.681308746E0,9.450871348E-1
1.662659375E0,4.929757118E-1,9.650202751E0,9.331161380E-1
1.667621875E0,5.312542319E-1,9.635848045E0,9.905482531E-1
1.672584375E0,4.762258530E-1,9.640635490E0,9.809715152E-1
1.677546875E0,4.929757118E-1,9.647809982E0,1.119758487E0
1.682510937E0,4.977545440E-1,9.714808464E0,1.181969523E0
1.687473437E0,5.216869712E-1,9.688490868E0,1.311189294E0
1.692437500E0,5.097255707E-1,9.736346245E0,1.459543705E0
1.697401562E0,5.432252288E-1,9.666953087E0,1.469110847E0
1.702362500E0,5.288599730E-1,9.681308746E0,1.545677543E0
1.707326562E0,5.240811706E-1,9.724386215E0,1.598321199E0
1.712289062E0,5.121101737E-1,9.698058128E0,1.691647053E0
1.717253125E0,4.570818543E-1,9.702846527E0,1.665320516E0
1.722215625E0,4.594760537E-1,9.750701904E0,1.684464574E0
1.727179687E0,3.374387920E-1,9.753096581E0,1.595927000E0
1.732142187E0,2.249783427E-1,9.702846527E0,1.449966788E0
1.737106250E0,1.077295020E-1,9.702846527E0,1.344689012E0
1.742068750E0,9.634267539E-3,9.721991539E0,1.210690260E0
1.747032812E0,-3.583640978E-2,9.700452805E0,1.220257521E0
1.751995312E0,-1.219702139E-1,9.729164124E0,1.234613180E0
1.756957812E0,-1.195855886E-1,9.681308746E0,1.074297428E0
1.761921875E0,-1.052203774E-1,9.635848045E0,1.038403511E0
1.766884375E0,-4.779784381E-2,9.583204269E0,8.063001037E-1
1.771848437E0,7.902780920E-2,9.499455452E0,6.675130129E-1
1.776810937E0,1.986517012E-1,9.439639091E0,5.789849758E-1
1.781775000E0,3.182947338E-1,9.346312523E0,5.622351766E-1
1.786737500E0,4.546876252E-1,9.274534225E0,5.263413191E-1
1.791700000E0,5.719364882E-1,9.195572853E0,4.880532324E-1
1.796664062E0,7.226849794E-1,9.154891014E0,4.378037155E-1
1.801626562E0,7.896843553E-1,9.162073135E0,4.904474318E-1
1.806590625E0,9.117120504E-1,9.104641914E0,4.856590331E-1
1.811553125E0,9.380386472E-1,9.142930031E0,7.249451280E-1
1.816517187E0,8.782123327E-1,9.130958557E0,7.991175056E-1
1.821479687E0,7.609634995E-1,9.135746956E0,9.546543956E-1
1.826443750E0,7.298580408E-1,9.178823471E0,1.009692311E0
1.831406250E0,7.609634995E-1,9.241034508E0,1.014471173E0
1.836368750E0,6.580798626E-1,9.317600250E0,1.014471173E0
1.841332812E0,6.365416050E-1,9.406138420E0,1.016865373E0
1.846293750E0,5.886863470E-1,9.379811287E0,1.043192029E0
1.851257812E0,6.556856632E-1,9.375033379E0,8.900492787E-1
1.856220312E0,6.676471233E-1,9.485099792E0,8.350113630E-1
1.861184375E0,6.054361463E-1,9.509031296E0,7.225509286E-1
1.866148437E0,3.948709071E-1,9.540136337E0,6.914454103E-1
1.871109375E0,1.412291676E-1,9.587991714E0,7.105894685E-1
1.876073437E0,-7.115567569E-3,9.662164688E0,7.584447861E-1
1.881037500E0,-1.985463500E-1,9.736346245E0,7.919444442E-1
1.886000000E0,-2.607572973E-1,9.736346245E0,9.044048786E-1
1.890964062E0,-4.139000177E-1,9.827268600E0,1.050364971E0
1.895926562E0,-4.043232203E-1,9.860768318E0,1.071903229E0
1.900889062E0,-3.971501887E-1,9.860768318E0,1.270507097E0
1.905853125E0,-2.344402373E-1,9.891883850E0,1.354256272E0
1.910815625E0,-9.325893968E-2,9.908634186E0,1.440399647E0
1.915778125E0,8.859504014E-2,9.994767189E0,1.493043303E0
1.920742187E0,1.364407688E-1,1.000913239E1,1.660541654E0
1.925704687E0,1.340465695E-1,1.007134342E1,1.708397031E0
1.930668750E0,2.034401149E-1,1.005698872E1,1.667714715E0
1.935632812E0,2.704394460E-1,1.013115978E1,1.615071058E0
1.940595312E0,2.560837865E-1,1.009048748E1,1.572004199E0
1.945559375E0,2.824008763E-1,1.015748692E1,1.397323132E0
1.950520312E0,3.159005344E-1,1.024362087E1,1.368611932E0
1.955484375E0,3.254773617E-1,1.028190899E1,1.296824098E0
1.960446875E0,2.632568479E-1,1.038719654E1,1.246574640E0
1.965410937E0,2.106227130E-1,1.045897484E1,1.160440803E0
1.970373437E0,2.010459006E-1,1.048530102E1,9.570485950E-1
1.975337500E0,2.584780157E-1,1.055708885E1,9.905482531E-1
1.980300000E0,2.560837865E-1,1.060254955E1,9.211547375E-1
1.985262500E0,2.345455736E-1,1.069108772E1,8.876550794E-1
1.990226562E0,1.819018722E-1,1.078679752E1,1.071903229E0
1.995189062E0,1.699404269E-1,1.083944130E1,1.162825465E0
2.000153125E0,5.030696467E-2,1.088490295E1,1.193940520E0
2.005117187E0,6.705679744E-2,1.090165234E1,1.268112898E0
2.010078125E0,6.227797270E-2,1.090404701E1,1.179575324E0
2.015043750E0,8.380663395E-2,1.088011456E1,1.143691063E0
2.020004687E0,9.338344634E-2,1.084900856E1,1.289651155E0
2.024970312E0,1.723346412E-1,1.091121960E1,1.390150189E0
2.029932812E0,1.795076579E-1,1.085619164E1,1.557648420E0
2.034895312E0,1.795076579E-1,1.091121960E1,1.713175774E0
2.039859375E0,1.149025261E-1,1.091121960E1,1.804107547E0
2.044821875E0,1.053352952E-1,1.089207649E1,1.985961556E0
2.049785937E0,5.748957023E-2,1.086097050E1,2.055355310E0
2.054746875E0,5.270116776E-2,1.086097050E1,2.038605452E0
2.059710937E0,6.466259807E-2,1.066236591E1,1.923750639E0
2.064673437E0,1.077295020E-1,1.061211681E1,1.813674808E0
2.069637500E0,1.531905979E-1,1.052597332E1,1.684464574E0
2.074600000E0,1.579789966E-1,1.042069626E1,1.694031715E0
2.079562500E0,2.130073458E-1,1.040155220E1,1.564821482E0
2.084526562E0,2.106227130E-1,1.030105305E1,1.481072307E0
2.089489062E0,1.603731960E-1,1.025080395E1,1.481072307E0
2.094453125E0,1.938728839E-1,1.020773602E1,1.411678791E0
2.099415625E0,2.273725420E-1,1.015269852E1,1.289651155E0
2.104379687E0,2.584780157E-1,1.006416130E1,1.258545637E0
2.109342187E0,1.890844703E-1,9.946911812E0,1.172402263E0
2.114304687E0,2.943718731E-1,9.846412659E0,1.105402946E0
2.119268750E0,2.584780157E-1,9.805740356E0,1.028836250E0
2.124231250E0,3.063333035E-1,9.757884979E0,9.355103970E-1
2.129195312E0,3.254773617E-1,9.712413788E0,8.158673048E-1
2.134157812E0,2.393339872E-1,9.650202751E0,7.225509286E-1
2.139120312E0,3.517944217E-1,9.602347374E0,6.770898700E-1
2.144084375E0,2.584780157E-1,9.549704552E0,6.172634959E-1
2.149048437E0,2.082285136E-1,9.552098274E0,6.770898700E-1
2.154012500E0,1.220851392E-1,9.542531013E0,7.847618461E-1
2.158973437E0,7.663360238E-2,9.597559929E0,1.052759290E0
2.163937500E0,-2.336740959E-3,9.614309311E0,1.378179073E0
2.168900000E0,-1.315470189E-1,9.573637009E0,1.603109598E0
2.173862500E0,-1.602582783E-1,9.621492386E0,1.660541654E0
2.178826562E0,-1.076145768E-1,9.578415871E0,1.624647856E0
2.183789062E0,-2.625960298E-2,9.525781631E0,1.418861270E0
2.188753125E0,6.466259807E-2,9.576031685E0,1.196325064E0
2.193715625E0,9.338344634E-2,9.544916153E0,1.091047287E0
2.198679687E0,-1.908657700E-2,9.578415871E0,1.071903229E0
2.203642187E0,-4.779784381E-2,9.619097710E0,9.905482531E-1
2.208604687E0,4.845864139E-3,9.587991714E0,1.024047971E0
2.213568750E0,-2.865380608E-2,9.607136726E0,1.031220913E0
2.218531250E0,-4.779784381E-2,9.621492386E0,1.062336087E0
2.223495312E0,-1.650466919E-1,9.626279831E0,1.103008628E0
2.228457812E0,-2.200750262E-1,9.611914635E0,1.227440238E0
2.233421875E0,-2.176903933E-1,9.554492950E0,1.227440238E0
2.238384375E0,-1.171913818E-1,9.643030167E0,1.239401579E0
2.243346875E0,-1.315470189E-1,9.638241768E0,1.232218981E0
2.248310937E0,-2.990453839E-1,9.666953087E0,1.071903229E0
2.253273437E0,-3.827945590E-1,9.568848610E0,8.732994199E-1
2.258237500E0,-5.191778541E-1,9.540136337E0,7.273392677E-1
2.263200000E0,-5.526775122E-1,9.568848610E0,6.029078960E-1
2.268164062E0,-5.143990517E-1,9.590386391E0,5.574467778E-1
2.273126562E0,-4.785051644E-1,9.513810158E0,4.138808548E-1
2.278089062E0,-4.450055063E-1,9.475532532E0,3.827657998E-1
2.283053125E0,-3.995443583E-1,9.470744133E0,3.492661417E-1
2.288015625E0,-3.205740452E-1,9.425282478E0,4.521593750E-1
2.292979687E0,-1.889695525E-1,9.446811676E0,6.627342105E-1
2.297942187E0,-1.315470189E-1,9.444426537E0,8.230499029E-1
2.302906250E0,-4.540364072E-2,9.386994362E0,8.852608800E-1
2.307868750E0,-7.172070444E-2,9.492281914E0,9.450871348E-1
2.312831250E0,3.595133126E-2,9.463561058E0,8.972222805E-1
2.317795312E0,5.746084207E-5,9.504242897E0,9.211547375E-1
2.322757812E0,-6.215347722E-2,9.578415871E0,8.804724813E-1
2.327721875E0,-1.506910622E-1,9.595166206E0,8.637226820E-1
2.332684375E0,-1.052203774E-1,9.599953651E0,6.866570711E-1
2.337648437E0,-1.985463500E-1,9.652597427E0,5.311201215E-1
2.342610937E0,-1.865849346E-1,9.683703423E0,3.995156586E-1
2.347573437E0,-2.511900663E-1,9.702846527E0,1.985176206E-1
2.352537500E0,-2.918627560E-1,9.772240639E0,6.930734962E-2
2.357500000E0,-2.200750262E-1,9.726778984E0,2.308010357E-3
2.362464062E0,-2.152961940E-1,9.755491257E0,2.624044940E-2
2.367426562E0,-1.650466919E-1,9.788990021E0,9.084559232E-2
2.372395312E0,-1.841907203E-1,9.810519218E0,1.865562052E-1
2.377353125E0,-1.435084492E-1,9.841633797E0,2.320173085E-1
2.382315625E0,-1.219702139E-1,9.949306488E0,2.511613369E-1
2.387279687E0,2.398990095E-2,9.884700775E0,3.085934520E-1
2.392242187E0,9.098923951E-2,9.877518654E0,2.942378223E-1
2.397206250E0,2.345455736E-1,9.894268990E0,6.029078960E-1
2.402168750E0,2.824008763E-1,9.815307617E0,7.895502448E-1
2.407132812E0,3.374387920E-1,9.889489174E0,9.905482531E-1
2.412095312E0,3.828999102E-1,9.903844833E0,1.301612496E0
2.417057812E0,4.283609986E-1,9.848807335E0,1.509793162E0
2.422021875E0,4.762258530E-1,9.839240074E0,1.698820233E0
2.426984375E0,4.475050271E-1,9.879913330E0,1.770607948E0
2.431948437E0,3.541886210E-1,9.934949875E0,1.703608632E0
2.436910937E0,3.039391041E-1,9.867951393E0,1.600715280E0
2.441875000E0,1.316523552E-1,9.939739227E0,1.512177706E0
2.446837500E0,-1.908657700E-2,9.968450546E0,1.282468557E0
2.451800000E0,-1.602582783E-1,9.968450546E0,1.227440238E0
2.456764062E0,-2.775071263E-1,9.951700211E0,1.057547569E0
2.461726562E0,-3.827945590E-1,9.942132950E0,1.033615232E0
2.466690625E0,-4.689379334E-1,9.920595169E0,9.857599139E-1
2.471653125E0,-4.354382753E-1,9.930162430E0,9.235489368E-1
2.476617187E0,-5.072164536E-1,9.999555588E0,8.086943030E-1
2.481579687E0,-6.651475430E-1,9.918201447E0,7.632332444E-1
2.486542187E0,-7.369257212E-1,9.887095451E0,5.383027196E-1
2.491506250E0,-7.752137780E-1,9.891883850E0,3.684101999E-1
2.496468750E0,-8.589629531E-1,9.846412659E0,2.272384614E-1
2.501432812E0,-7.632523179E-1,9.853595734E0,1.171626523E-1
2.506395312E0,-7.417141199E-1,9.844018936E0,1.363066882E-1
2.511357812E0,-6.388209462E-1,9.841633797E0,3.181606829E-1
2.516321875E0,-5.598601103E-1,9.829663277E0,4.880532324E-1
2.521284375E0,-4.713225365E-1,9.858384132E0,7.919444442E-1
2.526248437E0,-3.780061305E-1,9.877518654E0,1.024047971E0
2.531210937E0,-3.588621020E-1,9.829663277E0,1.205901980E0
2.536175000E0,-1.411142498E-1,9.820096016E0,1.248968840E0
2.541137500E0,8.380663395E-2,9.824884415E0,1.208296180E0
2.546100000E0,2.177957445E-1,9.784202576E0,1.131719947E0
2.551064062E0,3.685442507E-1,9.777029037E0,1.091047287E0
2.556026562E0,5.384368300E-1,9.760279655E0,1.043192029E0
2.560990625E0,6.724354625E-1,9.705241203E0,9.426929951E-1
2.565953125E0,7.490020990E-1,9.695664406E0,8.996165395E-1
2.570917187E0,8.471068740E-1,9.745914459E0,9.402987957E-1
2.575879687E0,8.925775886E-1,9.707635880E0,9.474717975E-1
2.580842187E0,8.518952727E-1,9.733952522E0,9.211547375E-1
2.585806250E0,8.375396132E-1,9.700452805E0,9.594427943E-1
2.590768750E0,7.705402970E-1,9.796163559E0,9.283373356E-1
2.595732812E0,7.322521806E-1,9.767452240E0,9.546543956E-1
2.600695312E0,6.389358044E-1,9.815307617E0,9.737984538E-1
2.605659375E0,5.934747458E-1,9.891883850E0,9.522601962E-1
2.610621875E0,4.379377961E-1,9.803345680E0,8.972222805E-1
2.615584375E0,4.403319955E-1,9.798557281E0,9.355103970E-1
2.620548437E0,3.350445926E-1,9.872738838E0,9.355103970E-1
2.625510937E0,2.177957445E-1,9.918201447E0,9.546543956E-1
2.630475000E0,1.986517012E-1,9.937344551E0,9.761926532E-1
2.635437500E0,1.412291676E-1,1.001630592E1,9.379045963E-1
2.640400000E0,9.098923951E-2,1.006894875E1,9.235489368E-1
2.645364062E0,-2.386540174E-2,1.005219936E1,9.187605381E-1
2.650326562E0,-1.243644133E-1,1.002109337E1,9.091932774E-1
2.655290625E0,-1.985463500E-1,1.003784370E1,8.732994199E-1
2.660253125E0,-2.775071263E-1,1.004501629E1,7.967232466E-1
2.665217187E0,-2.416132689E-1,1.003305531E1,8.326171637E-1
2.670179687E0,-2.607572973E-1,1.004501629E1,7.680120468E-1
2.675142187E0,-2.176903933E-1,1.011201668E1,7.153682709E-1
2.680106250E0,-2.870743573E-1,9.997160912E0,6.100904346E-1
2.685068750E0,-2.368248552E-1,9.987594604E0,5.574467778E-1
2.690032812E0,-2.511900663E-1,9.915806770E0,5.550525784E-1
2.694995312E0,-1.482968628E-1,9.927767754E0,6.579458117E-1
2.699959375E0,-1.841907203E-1,9.982805252E0,7.058010697E-1
2.704921875E0,-1.076145768E-1,9.901451111E0,7.034068704E-1
2.709884375E0,-4.300943762E-2,9.930162430E0,7.297335267E-1
2.714848437E0,5.746084207E-5,9.911018372E0,7.799734473E-1
2.719810937E0,7.240065839E-3,9.927767754E0,8.756936789E-1
2.724775000E0,-1.669237576E-2,9.937344551E0,9.355103970E-1
2.729737500E0,2.877830528E-2,9.956489563E0,9.402987957E-1
2.734701562E0,-9.509769268E-3,9.877518654E0,1.002509713E0
2.739664062E0,9.634267539E-3,9.901451111E0,1.069509029E0
2.744626562E0,-9.509769268E-3,9.903844833E0,1.057547569E0
2.749590625E0,5.509537086E-2,9.925383568E0,1.002509713E0
2.754553125E0,8.141243458E-2,9.901451111E0,1.009692311E0
2.759517187E0,8.380663395E-2,9.891883850E0,9.857599139E-1
2.764479687E0,1.316523552E-1,9.867951393E0,9.546543956E-1
2.769443750E0,1.340465695E-1,9.808135033E0,9.785868526E-1
2.774406250E0,1.627578288E-1,9.805740356E0,8.756936789E-1
2.779368750E0,1.077295020E-1,9.815307617E0,8.924434781E-1
2.784332812E0,2.398990095E-2,9.791384697E0,9.737984538E-1
2.789295312E0,-7.115567569E-3,9.743529320E0,9.666158557E-1
2.794259375E0,5.270116776E-2,9.760279655E0,9.809715152E-1
2.799221875E0,-4.300943762E-2,9.753096581E0,8.254441619E-1
2.804184375E0,-1.669237576E-2,9.726778984E0,7.680120468E-1
2.809148437E0,9.634267539E-3,9.702846527E0,6.746956110E-1
2.814110937E0,-6.694187969E-2,9.721991539E0,5.048030615E-1
2.819075000E0,-3.104800731E-2,9.719596863E0,4.521593750E-1
2.824037500E0,-9.325893968E-2,9.705241203E0,3.540545404E-1
2.829001562E0,-9.086474776E-2,9.688490868E0,1.889503896E-1
2.833964062E0,-9.565314651E-2,9.745914459E0,1.339124888E-1
2.838926562E0,-6.454767287E-2,9.693280220E0,1.004128158E-1
2.843890625E0,-5.019204319E-2,9.705241203E0,1.315278560E-1
2.848853125E0,-5.258624628E-2,9.712413788E0,1.291336715E-1
2.853817187E0,-4.721365869E-3,9.745914459E0,2.679111660E-1
2.858779687E0,-1.195855886E-1,9.731558800E0,4.665149748E-1
2.863743750E0,-1.243644133E-1,9.760279655E0,6.675130129E-1
2.868706250E0,-1.028357521E-1,9.753096581E0,7.775887847E-1
2.873668750E0,-1.722197086E-1,9.769846916E0,8.996165395E-1
2.878632812E0,-1.985463500E-1,9.810519218E0,9.714042544E-1
2.883595312E0,-1.817965209E-1,9.798557281E0,8.565496206E-1
2.888557812E0,-2.224692255E-1,9.798557281E0,8.637226820E-1
2.893521875E0,-1.817965209E-1,9.815307617E0,8.469727635E-1
2.898484375E0,-1.578640938E-1,9.817702293E0,8.063001037E-1
2.903448437E0,-1.482968628E-1,9.786596298E0,7.847618461E-1
2.908410937E0,-7.172070444E-2,9.827268600E0,7.656177878E-1
2.913375000E0,-9.086474776E-2,9.863162994E0,7.369065285E-1
2.918337500E0,-6.933607906E-2,9.858384132E0,7.632332444E-1
2.923301562E0,-4.779784381E-2,9.851201057E0,7.536563873E-1
2.928264062E0,1.441309415E-2,9.867951393E0,8.685110211E-1
2.933226562E0,5.746084207E-5,9.848807335E0,9.187605381E-1
2.938190625E0,-7.172070444E-2,9.882307053E0,8.230499029E-1
2.943153125E0,-9.325893968E-2,9.942132950E0,8.397997618E-1
2.948117187E0,-2.105077952E-1,9.908634186E0,7.967232466E-1
2.953079687E0,-2.679399252E-1,9.963662148E0,7.393007874E-1
2.958042187E0,-2.655456960E-1,9.925383568E0,6.746956110E-1
2.963006250E0,-3.947559893E-1,9.901451111E0,6.053020358E-1
2.967970312E0,-4.545727372E-1,9.980412483E0,6.292344928E-1
2.972932812E0,-4.234672487E-1,9.975632668E0,6.029078960E-1
2.977895312E0,-4.473996758E-1,9.961267471E0,7.081953287E-1
2.982859375E0,-4.330440462E-1,1.001630592E1,7.369065285E-1
2.987821875E0,-4.354382753E-1,9.911018372E0,8.732994199E-1
2.992784375E0,-3.971501887E-1,9.961267471E0,9.809715152E-1
2.997748437E0,-4.139000177E-1,9.918201447E0,9.283373356E-1
3.002710937E0,-3.971501887E-1,9.961267471E0,9.809715152E-1
3.007675000E0,-3.062183857E-1,9.930162430E0,9.714042544E-1
3.012637500E0,-2.487958670E-1,9.949306488E0,8.804724813E-1
3.017600000E0,-1.889695525E-1,9.930162430E0,8.828666210E-1
3.022564062E0,-9.325893968E-2,9.911018372E0,8.972222805E-1
3.027528125E0,-9.804734588E-2,9.882307053E0,8.756936789E-1
3.032490625E0,4.845864139E-3,9.906239510E0,9.379045963E-1
3.037453125E0,1.029410958E-1,9.870346069E0,9.307219982E-1
3.042415625E0,1.795076579E-1,9.800951958E0,9.331161380E-1
3.047379687E0,1.699404269E-1,9.800951958E0,1.004903913E0
3.052343750E0,1.172967330E-1,9.822490692E0,1.059941769E0
3.057306250E0,9.098923951E-2,9.829663277E0,1.047970772E0
3.062268750E0,1.172967330E-1,9.855990410E0,1.165219545E0
3.067232812E0,1.340465695E-1,9.858384132E0,1.227440238E0
3.072195312E0,1.292581707E-1,9.901451111E0,1.062336087E0
3.077159375E0,1.292581707E-1,9.841633797E0,9.498660564E-1
3.082121875E0,1.364407688E-1,9.810519218E0,8.517611623E-1
3.087084375E0,1.555848122E-1,9.753096581E0,7.321181893E-1
3.092048437E0,1.316523552E-1,9.841633797E0,7.656177878E-1
3.097010937E0,2.919777036E-1,9.669347763E0,7.034068704E-1
3.101975000E0,2.106227130E-1,9.717203140E0,7.680120468E-1
3.106937500E0,2.273725420E-1,9.738740921E0,7.656177878E-1
3.111900000E0,2.106227130E-1,9.738740921E0,7.943387032E-1
3.116864062E0,1.675462276E-1,9.750701904E0,8.206557035E-1
3.121826562E0,2.177957445E-1,9.729164124E0,7.416949272E-1
3.126790625E0,1.890844703E-1,9.702846527E0,6.890512705E-1
3.131753125E0,1.268735379E-1,9.774634361E0,6.388017535E-1
3.136717187E0,5.270116776E-2,9.707635880E0,6.148692966E-1
3.141679687E0,7.663360238E-2,9.832057953E0,6.364075541E-1
3.146643750E0,1.029410958E-1,9.798557281E0,6.005136967E-1
3.151606250E0,-3.104800731E-2,9.786596298E0,5.885522366E-1
3.156568750E0,-1.459026486E-1,9.798557281E0,7.058010697E-1
3.161532812E0,-2.224692255E-1,9.820096016E0,6.651188135E-1
3.166495312E0,-2.799013257E-1,9.844018936E0,6.818686724E-1
3.171457812E0,-3.445064723E-1,9.867951393E0,7.847618461E-1
3.176421875E0,-4.426112771E-1,9.891883850E0,8.972222805E-1
3.181384375E0,-4.306498468E-1,9.975632668E0,8.350113630E-1
3.186348437E0,-3.804003298E-1,9.903844833E0,8.709052205E-1
3.191310937E0,-4.186884165E-1,9.939739227E0,7.584447861E-1
3.196273437E0,-3.899675608E-1,9.925383568E0,7.656177878E-1
3.201237500E0,-3.157951832E-1,9.949306488E0,6.746956110E-1
3.206201562E0,-1.817965209E-1,1.003544903E1,5.885522366E-1
3.211164062E0,-1.650466919E-1,9.980412483E0,6.100904346E-1
3.216126562E0,-1.147971824E-1,9.942132950E0,7.991175056E-1
3.221090625E0,-1.908657700E-2,9.901451111E0,8.302229643E-1
3.226053125E0,4.313393682E-2,9.865556717E0,9.905482531E-1
3.231017187E0,1.579789966E-1,9.879913330E0,1.100614548E0
3.235979687E0,1.196909323E-1,9.872738838E0,1.138902545E0
3.240942187E0,2.489012182E-1,9.920595169E0,1.162825465E0
3.245906250E0,2.130073458E-1,9.867951393E0,1.110191226E0
3.250868750E0,2.345455736E-1,9.798557281E0,1.071903229E0
3.255831250E0,2.393339872E-1,9.810519218E0,9.546543956E-1
3.260795312E0,2.177957445E-1,9.817702293E0,9.259431362E-1
3.265757812E0,2.417281866E-1,9.800951958E0,1.002509713E0
3.270721875E0,1.866902709E-1,9.786596298E0,1.028836250E0
3.275684375E0,1.531905979E-1,9.846412659E0,1.186757922E0
3.280648437E0,1.149025261E-1,9.796163559E0,1.210690260E0
3.285610937E0,1.436233670E-1,9.867951393E0,1.366217613E0
3.290573437E0,6.466259807E-2,9.824884415E0,1.385361671E0
3.295537500E0,6.945100427E-2,9.867951393E0,1.318362474E0
3.300501562E0,-2.386540174E-2,9.887095451E0,1.244190097E0
3.305464062E0,5.988377333E-2,9.879913330E0,1.172402263E0
3.310426562E0,-7.172070444E-2,9.899056435E0,1.203507662E0
3.315390625E0,-5.019204319E-2,9.913412094E0,1.088653088E0
3.320353125E0,-1.147971824E-1,9.949306488E0,9.929425120E-1
3.325315625E0,-2.487958670E-1,9.958883286E0,8.924434781E-1
3.330279687E0,-3.086126149E-1,9.934949875E0,8.206557035E-1
3.335242187E0,-4.162942171E-1,9.958883286E0,5.526583791E-1
3.340206250E0,-4.497938752E-1,9.903844833E0,4.689091742E-1
3.345168750E0,-4.306498468E-1,9.906239510E0,3.420931101E-1
3.350132812E0,-4.426112771E-1,9.906239510E0,2.511613369E-1
3.355096875E0,-3.588621020E-1,9.815307617E0,1.602391303E-1
3.360059375E0,-3.253624141E-1,9.805740356E0,1.339124888E-1
3.365021875E0,-2.727187276E-1,9.791384697E0,1.243452579E-1
3.369984375E0,-2.105077952E-1,9.844018936E0,1.171626523E-1
3.374948437E0,-1.794023216E-1,9.757884979E0,2.870551944E-1
3.379912500E0,-1.650466919E-1,9.733952522E0,3.971310258E-1
3.384875000E0,-8.608591557E-2,9.724386215E0,4.545535445E-1
3.389839062E0,-3.104800731E-2,9.690885544E0,4.665149748E-1
3.394800000E0,6.227797270E-2,9.664558411E0,4.760918021E-1
3.399764062E0,1.053352952E-1,9.650202751E0,6.005136967E-1
3.404726562E0,1.651520431E-1,9.602347374E0,6.842628121E-1
3.409690625E0,1.866902709E-1,9.580809593E0,6.938396692E-1
3.414653125E0,2.106227130E-1,9.623887062E0,7.273392677E-1
3.419617187E0,2.632568479E-1,9.566453934E0,7.871560454E-1
3.424579687E0,2.201899439E-1,9.619097710E0,7.728003860E-1
3.429542187E0,2.441223711E-1,9.626279831E0,7.393007874E-1
3.434506250E0,2.465070039E-1,9.645415306E0,8.134731650E-1
3.439468750E0,1.388349682E-1,9.721991539E0,8.661168218E-1
3.444432812E0,6.945100427E-2,9.705241203E0,8.206557035E-1
3.449395312E0,2.159569971E-2,9.748308182E0,7.608389854E-1
3.454359375E0,-9.325893968E-2,9.805740356E0,7.680120468E-1
3.459321875E0,-1.626524776E-1,9.836845398E0,8.326171637E-1
3.464284375E0,-1.674408913E-1,9.805740356E0,8.685110211E-1
3.469248437E0,-1.961521655E-1,9.810519218E0,8.900492787E-1
3.474210937E0,-2.296518236E-1,9.798557281E0,9.211547375E-1
3.479175000E0,-2.200750262E-1,9.853595734E0,9.163663387E-1
3.484137500E0,-2.583630979E-1,9.875133514E0,9.642215967E-1
3.489101562E0,-1.937579513E-1,9.877518654E0,1.014471173E0
3.494064062E0,-1.817965209E-1,9.889489174E0,9.666158557E-1
3.499028125E0,-1.841907203E-1,9.882307053E0,9.307219982E-1
3.503990625E0,-2.057193965E-1,9.899056435E0,9.307219982E-1
3.508953125E0,-1.674408913E-1,9.891883850E0,9.546543956E-1
3.513917187E0,-2.631514966E-1,9.884700775E0,8.469727635E-1
3.518879687E0,-1.865849346E-1,9.906239510E0,8.804724813E-1
3.523843750E0,-7.650911063E-2,9.865556717E0,8.134731650E-1
3.528806250E0,-7.411490381E-2,9.891883850E0,8.015117049E-1
3.533768750E0,-1.190397050E-2,9.908634186E0,8.302229643E-1
3.538732812E0,5.030696467E-2,9.867951393E0,8.110885024E-1
3.543695312E0,1.077295020E-1,9.855990410E0,8.709052205E-1
3.548659375E0,1.484021842E-1,9.875133514E0,8.110885024E-1
3.553621875E0,1.819018722E-1,9.889489174E0,8.996165395E-1
3.558585937E0,1.172967330E-1,9.920595169E0,9.235489368E-1
3.563548437E0,9.576806426E-2,9.834450722E0,9.905482531E-1
3.568510937E0,6.227797270E-2,9.872738838E0,1.000115514E0
3.573475000E0,-3.104800731E-2,9.889489174E0,1.059941769E0
3.578437500E0,-1.219702139E-1,9.963662148E0,9.929425120E-1
3.583401562E0,-1.674408913E-1,9.896661758E0,8.804724813E-1
3.588364062E0,-2.487958670E-1,9.872738838E0,8.661168218E-1
3.593326562E0,-1.889695525E-1,9.817702293E0,8.374055624E-1
3.598290625E0,-1.961521655E-1,9.906239510E0,7.297335267E-1
3.603253125E0,-2.392190546E-1,9.882307053E0,8.493670225E-1
3.608217187E0,-1.722197086E-1,9.872738838E0,8.709052205E-1
3.613179687E0,-1.770081222E-1,9.875133514E0,8.661168218E-1
3.618143750E0,-1.817965209E-1,9.877518654E0,9.450871348E-1
3.623107812E0,-1.530852467E-1,9.891883850E0,1.007298112E0
3.628070312E0,-1.124029830E-1,9.839240074E0,1.045586228E0
3.633032812E0,-3.583640978E-2,9.956489563E0,1.014471173E0
3.637996875E0,5.746084207E-5,9.901451111E0,9.498660564E-1
3.642959375E0,-3.822103515E-2,9.891883850E0,7.728003860E-1
3.647923437E0,-4.721365869E-3,9.810519218E0,7.608389854E-1
3.652885937E0,-9.509769268E-3,9.815307617E0,6.435901523E-1
3.657850000E0,1.053352952E-1,9.769846916E0,6.316191554E-1
3.662812500E0,1.244793311E-1,9.779414177E0,6.411958933E-1
3.667775000E0,1.029410958E-1,9.863162994E0,7.440891862E-1
3.672739062E0,1.914786696E-1,9.846412659E0,7.967232466E-1
3.677701562E0,1.053352952E-1,9.774634361E0,9.498660564E-1
3.682664062E0,1.914786696E-1,9.827268600E0,9.857599139E-1
3.687628125E0,2.417281866E-1,9.815307617E0,1.004903913E0
3.692592187E0,3.111217320E-1,9.817702293E0,9.522601962E-1
3.697553125E0,3.039391041E-1,9.839240074E0,1.112575889E0
3.702517187E0,2.824008763E-1,9.887095451E0,1.138902545E0
3.707479687E0,2.847950757E-1,9.848807335E0,1.189152122E0
3.712443750E0,3.063333035E-1,9.918201447E0,1.232218981E0
3.717406250E0,2.010459006E-1,9.930162430E0,1.225046039E0
3.722368750E0,1.436233670E-1,9.954094887E0,1.143691063E0
3.727334375E0,2.398990095E-2,1.000434399E1,1.122152686E0
3.732296875E0,-8.129751682E-2,9.975632668E0,1.069509029E0
3.737259375E0,-1.171913818E-1,9.997160912E0,1.047970772E0
3.742221875E0,-1.578640938E-1,1.002588272E1,1.014471173E0
3.747185937E0,-1.770081222E-1,9.951700211E0,9.355103970E-1
3.752150000E0,-1.937579513E-1,9.970844269E0,8.230499029E-1
3.757112500E0,-1.602582783E-1,9.994767189E0,8.110885024E-1
3.762075000E0,-9.325893968E-2,9.944517136E0,8.756936789E-1
3.767037500E0,2.451662440E-3,9.966055870E0,9.044048786E-1
3.772001562E0,9.338344634E-2,9.930162430E0,8.780878186E-1
3.776964062E0,1.196909323E-1,9.865556717E0,9.115875363E-1
3.781928125E0,2.393339872E-1,9.800951958E0,9.163663387E-1
3.786890625E0,2.847950757E-1,9.863162994E0,9.570485950E-1
3.791854687E0,2.776220441E-1,9.839240074E0,9.020106792E-1
3.796817187E0,2.465070039E-1,9.832057953E0,8.182615638E-1
3.801779687E0,2.489012182E-1,9.820096016E0,9.426929951E-1
3.806743750E0,2.058342993E-1,9.820096016E0,9.259431362E-1
3.811707812E0,1.627578288E-1,9.844018936E0,1.038403511E0
3.816670312E0,9.338344634E-2,9.932557106E0,1.033615232E0
3.821632812E0,1.196909323E-1,9.865556717E0,1.000115514E0
3.826596875E0,1.484021842E-1,9.875133514E0,9.426929951E-1
3.831559375E0,1.196909323E-1,9.894268990E0,8.924434781E-1
3.836521875E0,7.902780920E-2,9.853595734E0,9.115875363E-1
3.841485937E0,5.030696467E-2,9.805740356E0,8.613380194E-1
3.846448437E0,6.705679744E-2,9.827268600E0,9.594427943E-1
3.851412500E0,1.555848122E-1,9.803345680E0,9.402987957E-1
3.856375000E0,1.005468965E-1,9.803345680E0,8.948376179E-1
3.861337500E0,1.244793311E-1,9.800951958E0,8.326171637E-1
3.866301562E0,-1.429817267E-2,9.841633797E0,9.905482531E-1
3.871264062E0,5.746084207E-5,9.891883850E0,1.000115514E0
3.876228125E0,-7.411490381E-2,9.846412659E0,9.690100551E-1
3.881190625E0,-1.315470189E-1,9.827268600E0,1.026442170E0
3.886153125E0,-9.804734588E-2,9.832057953E0,1.079076290E0
3.891117187E0,-1.626524776E-1,9.899056435E0,9.809715152E-1
3.896079687E0,-1.985463500E-1,9.822490692E0,1.019259572E0
3.901043750E0,-1.889695525E-1,9.867951393E0,9.929425120E-1
3.906006250E0,-1.267586201E-1,9.817702293E0,8.804724813E-1
3.910970312E0,-1.052203774E-1,9.800951958E0,8.302229643E-1
3.915932812E0,-6.933607906E-2,9.860768318E0,6.555515528E-1
3.920895312E0,-9.509769268E-3,9.834450722E0,7.034068704E-1
3.925859375E0,9.098923951E-2,9.777029037E0,7.728003860E-1
3.930821875E0,1.484021842E-1,9.760279655E0,8.254441619E-1
3.935785937E0,1.316523552E-1,9.774634361E0,8.852608800E-1
3.940748437E0,1.675462276E-1,9.757884979E0,9.355103970E-1
3.945712500E0,2.393339872E-1,9.800951958E0,1.021653771E0
3.950695312E0,2.560837865E-1,9.791384697E0,1.026442170E0
3.955637500E0,2.177957445E-1,9.757884979E0,1.064720750E0
3.960601562E0,2.010459006E-1,9.767452240E0,1.007298112E0
3.965564062E0,2.321513742E-1,9.781807899E0,1.076691628E0
3.970528125E0,2.991507351E-1,9.738740921E0,1.079076290E0
3.975490625E0,3.565828204E-1,9.829663277E0,1.114970207E0
3.980454687E0,3.446213901E-1,9.757884979E0,1.186757922E0
3.985417187E0,3.446213901E-1,9.793779373E0,1.040797710E0
3.990379687E0,3.374387920E-1,9.817702293E0,1.081470490E0
3.995343750E0,2.345455736E-1,9.777029037E0,1.098220348E0
4.000306250E0,1.531905979E-1,9.841633797E0,1.136508465E0
4.005270312E0,1.172967330E-1,9.858384132E0,1.107797146E0
4.010232812E0,8.620083332E-2,9.870346069E0,1.047970772E0
4.015196875E0,1.202846877E-2,9.925383568E0,1.021653771E0
4.020159375E0,-4.779784381E-2,9.896661758E0,9.833656549E-1
4.025123437E0,-1.147971824E-1,9.899056435E0,8.852608800E-1
4.030085937E0,-3.104800731E-2,9.987594604E0,8.876550794E-1
4.035048437E0,-9.804734588E-2,9.939739227E0,9.379045963E-1
4.040012500E0,-5.975927413E-2,9.934949875E0,9.187605381E-1
4.044975000E0,-1.674408913E-1,9.925383568E0,8.804724813E-1
4.049939062E0,-4.540364072E-2,9.925383568E0,8.541554213E-1
4.054901562E0,-2.336740959E-3,9.956489563E0,9.091932774E-1
4.059865625E0,-4.540364072E-2,9.966055870E0,9.379045963E-1
4.064828125E0,4.313393682E-2,9.978017807E0,9.618370533E-1
4.069790625E0,4.552813992E-2,9.911018372E0,9.953366518E-1
4.074754687E0,1.364407688E-1,9.860768318E0,9.881540537E-1
4.079717187E0,8.380663395E-2,9.882307053E0,9.450871348E-1
4.084681250E0,1.555848122E-1,9.853595734E0,8.924434781E-1
4.089643750E0,1.627578288E-1,9.753096581E0,8.397997618E-1
4.094606250E0,2.321513742E-1,9.839240074E0,7.369065285E-1
4.099570312E0,2.345455736E-1,9.800951958E0,7.464833260E-1
4.104532812E0,2.752278447E-1,9.824884415E0,8.852608800E-1
4.109496875E0,2.728336453E-1,9.793779373E0,9.355103970E-1
4.114459375E0,2.656510174E-1,9.815307617E0,9.881540537E-1
4.119421875E0,1.005468965E-1,9.855990410E0,1.050364971E0
4.124385937E0,1.149025261E-1,9.829663277E0,1.028836250E0
4.129348437E0,1.388349682E-1,9.736346245E0,1.021653771E0
4.134312500E0,1.005468965E-1,9.788990021E0,9.498660564E-1
4.139275000E0,1.316523552E-1,9.774634361E0,9.307219982E-1
4.144237500E0,1.484021842E-1,9.695664406E0,8.469727635E-1
4.149201562E0,1.412291676E-1,9.705241203E0,8.110885024E-1
4.154164062E0,1.795076579E-1,9.710029602E0,8.517611623E-1
4.159128125E0,1.890844703E-1,9.736346245E0,9.115875363E-1
4.164090625E0,1.555848122E-1,9.690885544E0,9.044048786E-1
4.169054687E0,2.536896169E-1,9.707635880E0,9.211547375E-1
4.174017187E0,1.842960715E-1,9.731558800E0,9.283373356E-1
4.178981250E0,1.244793311E-1,9.784202576E0,8.637226820E-1
4.183943750E0,1.149025261E-1,9.700452805E0,8.039059043E-1
4.188907812E0,9.338344634E-2,9.729164124E0,7.129837275E-1
4.193870312E0,2.877830528E-2,9.798557281E0,7.847618461E-1
4.198832812E0,9.815269709E-2,9.762663841E0,7.153682709E-1
4.203796875E0,1.244793311E-1,9.750701904E0,8.350113630E-1
4.208759375E0,8.380663395E-2,9.762663841E0,9.522601962E-1
4.213721875E0,5.988377333E-2,9.793779373E0,1.074297428E0
4.218685937E0,1.005468965E-1,9.808135033E0,1.165219545E0
4.223648437E0,1.053352952E-1,9.855990410E0,1.186757922E0
4.228612500E0,1.795076579E-1,9.860768318E0,1.189152122E0
4.233575000E0,1.244793311E-1,9.808135033E0,1.155652523E0
4.238539062E0,7.184520364E-2,9.791384697E0,1.012086511E0
4.243501562E0,1.436233670E-1,9.753096581E0,9.474717975E-1
4.248465625E0,1.292581707E-1,9.767452240E0,8.828666210E-1
4.253428125E0,1.268735379E-1,9.753096581E0,7.895502448E-1
4.258390625E0,1.747288406E-1,9.738740921E0,7.967232466E-1
4.263354687E0,2.991507351E-1,9.714808464E0,7.871560454E-1
4.268317187E0,3.015449345E-1,9.721991539E0,8.996165395E-1
4.273281250E0,2.847950757E-1,9.733952522E0,9.379045963E-1
4.278243750E0,3.230831623E-1,9.788990021E0,9.761926532E-1
4.283206250E0,3.278715611E-1,9.745914459E0,9.139720798E-1
4.288168750E0,2.704394460E-1,9.726778984E0,9.259431362E-1
4.293132812E0,1.938728839E-1,9.717203140E0,9.714042544E-1
4.298096875E0,9.576806426E-2,9.800951958E0,9.761926532E-1
4.303059375E0,3.595133126E-2,9.884700775E0,8.709052205E-1
4.308023437E0,-7.172070444E-2,9.808135033E0,8.493670225E-1
4.312985937E0,-1.746139228E-1,9.796163559E0,8.397997618E-1
4.317948437E0,-2.152961940E-1,9.827268600E0,9.402987957E-1
4.322912500E0,-1.913637519E-1,9.853595734E0,8.302229643E-1
4.327875000E0,-2.464016527E-1,9.867951393E0,8.637226820E-1
4.332837500E0,-2.129019946E-1,9.808135033E0,9.283373356E-1
4.337801562E0,-1.459026486E-1,9.817702293E0,9.091932774E-1
4.342764062E0,-1.028357521E-1,9.882307053E0,9.714042544E-1
4.347726562E0,-1.908657700E-2,9.817702293E0,9.881540537E-1
4.352690625E0,-2.386540174E-2,9.846412659E0,9.929425120E-1
4.357653125E0,5.270116776E-2,9.800951958E0,9.905482531E-1
4.362617187E0,2.034401149E-1,9.762663841E0,8.374055624E-1
4.367579687E0,2.321513742E-1,9.750701904E0,7.273392677E-1
4.372543750E0,1.795076579E-1,9.769846916E0,7.416949272E-1
4.377506250E0,2.369397730E-1,9.736346245E0,7.225509286E-1
4.382470312E0,2.512954175E-1,9.760279655E0,7.464833260E-1
4.387432812E0,2.321513742E-1,9.767452240E0,7.847618461E-1
4.392395312E0,2.106227130E-1,9.731558800E0,7.464833260E-1
4.397359375E0,2.225841433E-1,9.760279655E0,7.943387032E-1
4.402323437E0,9.338344634E-2,9.743529320E0,1.007298112E0
4.407285937E0,1.053352952E-1,9.748308182E0,9.857599139E-1
4.412248437E0,1.771230400E-1,9.784202576E0,1.083864689E0
4.417210937E0,1.920149848E-2,9.834450722E0,1.016865373E0
4.422175000E0,-5.497087166E-2,9.808135033E0,9.259431362E-1
4.427137500E0,-3.583640978E-2,9.884700775E0,8.565496206E-1
4.432101562E0,-2.625960298E-2,9.855990410E0,9.139720798E-1
4.437064062E0,-9.509769268E-3,9.827268600E0,9.211547375E-1
4.442028125E0,2.398990095E-2,9.865556717E0,8.804724813E-1
4.446990625E0,7.423940301E-2,9.853595734E0,9.881540537E-1
4.451953125E0,5.270116776E-2,9.827268600E0,1.014471173E0
4.456917187E0,1.005468965E-1,9.870346069E0,1.057547569E0
4.461879687E0,8.620083332E-2,9.867951393E0,1.167613864E0
4.466843750E0,1.029410958E-1,9.915806770E0,1.232218981E0
4.471806250E0,1.507963985E-1,9.853595734E0,1.138902545E0
4.476768750E0,9.338344634E-2,9.944517136E0,1.098220348E0
4.481732812E0,8.859504014E-2,9.851201057E0,1.004903913E0
4.486695312E0,5.988377333E-2,9.879913330E0,9.905482531E-1
4.491659375E0,1.101237014E-1,9.877518654E0,9.044048786E-1
4.496621875E0,4.313393682E-2,9.951700211E0,9.570485950E-1
4.501585937E0,-2.147120051E-2,9.925383568E0,1.016865373E0
4.506548437E0,4.845864139E-3,9.956489563E0,1.184363604E0
4.511512500E0,7.240065839E-3,9.913412094E0,1.241795778E0
4.516476562E0,4.552813992E-2,9.944517136E0,1.155652523E0
4.521437500E0,-1.429817267E-2,9.958883286E0,1.162825465E0
4.526401562E0,-9.509769268E-3,9.937344551E0,1.153258204E0
4.531365625E0,-4.540364072E-2,9.930162430E0,1.024047971E0
4.536328125E0,1.202846877E-2,9.889489174E0,1.071903229E0
4.541290625E0,5.748957023E-2,9.903844833E0,1.043192029E0
4.546253125E0,1.441309415E-2,9.968450546E0,9.785868526E-1
4.551218750E0,3.116292879E-2,9.922988892E0,1.009692311E0
4.556179687E0,6.945100427E-2,9.922988892E0,9.498660564E-1
4.561143750E0,5.746084207E-5,9.934949875E0,8.756936789E-1
4.566106250E0,-5.019204319E-2,9.973237991E0,8.469727635E-1
4.571070312E0,-5.736507475E-2,9.942132950E0,8.948376179E-1
4.576032812E0,-3.822103515E-2,1.002826691E1,9.067991376E-1
4.580995312E0,-5.019204319E-2,9.925383568E0,8.924434781E-1
4.585959375E0,-8.608591557E-2,9.930162430E0,8.924434781E-1
4.590921875E0,-7.411490381E-2,9.939739227E0,8.804724813E-1
4.595885937E0,-1.147971824E-1,9.927767754E0,9.115875363E-1
4.600848437E0,-9.565314651E-2,9.879913330E0,8.828666210E-1
4.605812500E0,-4.779784381E-2,9.915806770E0,8.517611623E-1
4.610775000E0,2.451662440E-3,9.934949875E0,9.450871348E-1
4.615737500E0,1.202846877E-2,9.865556717E0,9.307219982E-1
4.620701562E0,-1.190397050E-2,9.939739227E0,9.953366518E-1
4.625664062E0,5.746084207E-5,9.927767754E0,1.004903913E0
4.630628125E0,1.920149848E-2,9.911018372E0,9.522601962E-1
4.635590625E0,3.116292879E-2,9.889489174E0,9.402987957E-1
4.640554687E0,1.680729724E-2,9.829663277E0,9.379045963E-1
4.645517187E0,1.101237014E-1,9.844018936E0,9.259431362E-1
4.650479687E0,1.202846877E-2,9.865556717E0,9.929425120E-1
4.655443750E0,1.920149848E-2,9.841633797E0,1.016865373E0
4.660407812E0,-6.215347722E-2,9.884700775E0,1.024047971E0
4.665370312E0,2.451662440E-3,9.851201057E0,9.905482531E-1
4.670332812E0,1.920149848E-2,9.865556717E0,1.024047971E0
4.675295312E0,2.398990095E-2,9.848807335E0,9.785868526E-1
4.680259375E0,7.423940301E-2,9.829663277E0,9.331161380E-1
4.685221875E0,7.663360238E-2,9.753096581E0,9.235489368E-1
4.690185937E0,1.531905979E-1,9.748308182E0,9.044048786E-1
4.695148437E0,1.292581707E-1,9.731558800E0,8.924434781E-1
4.700112500E0,1.675462276E-1,9.719596863E0,9.091932774E-1
4.705075000E0,1.436233670E-1,9.753096581E0,8.876550794E-1
4.710037500E0,1.866902709E-1,9.714808464E0,8.852608800E-1
4.715001562E0,1.292581707E-1,9.774634361E0,9.259431362E-1
4.719964062E0,1.149025261E-1,9.760279655E0,8.924434781E-1
4.724928125E0,9.815269709E-2,9.779414177E0,9.235489368E-1
4.729890625E0,1.029410958E-1,9.784202576E0,9.355103970E-1
4.734854687E0,9.815269709E-2,9.829663277E0,9.642215967E-1
4.739817187E0,1.005468965E-1,9.772240639E0,9.187605381E-1
4.744781250E0,1.220851392E-1,9.721991539E0,8.493670225E-1
4.749743750E0,1.747288406E-1,9.733952522E0,9.331161380E-1
4.754706250E0,2.154015303E-1,9.774634361E0,9.379045963E-1
4.759670312E0,2.082285136E-1,9.733952522E0,9.355103970E-1
4.764632812E0,2.106227130E-1,9.750701904E0,8.972222805E-1
4.769596875E0,3.972555101E-1,9.721991539E0,9.331161380E-1
4.774559375E0,2.895835042E-1,9.726778984E0,1.028836250E0
4.779521875E0,2.441223711E-1,9.743529320E0,1.131719947E0
4.784485937E0,3.350445926E-1,9.748308182E0,1.179575324E0
4.789448437E0,2.489012182E-1,9.855990410E0,1.337506413E0
4.794412500E0,2.608722150E-1,9.793779373E0,1.308795214E0
4.799375000E0,1.819018722E-1,9.824884415E0,1.452361107E0
4.804339062E0,1.316523552E-1,9.884700775E0,1.318362474E0
4.809301562E0,1.436233670E-1,9.865556717E0,1.313573956E0
4.814264062E0,1.962575018E-1,9.817702293E0,1.150864005E0
4.819229687E0,1.531905979E-1,9.863162994E0,1.095826149E0
4.824192187E0,1.149025261E-1,9.913412094E0,1.069509029E0
4.829154687E0,1.244793311E-1,9.879913330E0,1.055153489E0
4.834117187E0,1.005468965E-1,9.872738838E0,1.081470490E0
4.839081250E0,1.029410958E-1,9.891883850E0,1.064720750E0
4.844043750E0,7.663360238E-2,9.908634186E0,9.809715152E-1
4.849006250E0,4.313393682E-2,9.899056435E0,1.014471173E0
4.853970312E0,-3.104800731E-2,9.899056435E0,1.076691628E0
4.858932812E0,-1.190397050E-2,9.882307053E0,1.052759290E0
4.863896875E0,-2.386540174E-2,9.901451111E0,1.028836250E0
4.868859375E0,-1.669237576E-2,9.939739227E0,8.445882201E-1
4.873823437E0,-2.625960298E-2,9.877518654E0,7.895502448E-1
4.878785937E0,-3.822103515E-2,9.903844833E0,7.560505867E-1
4.883748437E0,-4.540364072E-2,9.906239510E0,5.885522366E-1
4.888712500E0,-2.865380608E-2,9.908634186E0,5.048030615E-1
4.893675000E0,-5.736507475E-2,9.911018372E0,5.167644620E-1
4.898639062E0,-9.565314651E-2,9.891883850E0,5.143703222E-1
4.903601562E0,-9.804734588E-2,9.899056435E0,5.741965771E-1
4.908565625E0,-1.291528195E-1,9.879913330E0,7.105894685E-1
4.913528125E0,-1.650466919E-1,9.860768318E0,8.421939611E-1
4.918490625E0,-2.009405643E-1,9.894268990E0,9.163663387E-1
4.923454687E0,-1.171913818E-1,9.911018372E0,1.007298112E0
4.928417187E0,-6.215347722E-2,9.894268990E0,1.055153489E0
4.933381250E0,2.638410218E-2,9.918201447E0,1.091047287E0
4.938343750E0,5.270116776E-2,9.918201447E0,1.179575324E0
4.943332812E0,6.466259807E-2,9.901451111E0,1.117364407E0
4.948270312E0,1.005468965E-1,9.805740356E0,1.148469806E0
4.953232812E0,1.962575018E-1,9.750701904E0,1.129325747E0
4.958196875E0,3.254773617E-1,9.755491257E0,1.141296744E0
4.963159375E0,3.230831623E-1,9.769846916E0,1.045586228E0
4.968123437E0,3.613712192E-1,9.729164124E0,1.038403511E0
4.973085937E0,3.374387920E-1,9.714808464E0,1.146075726E0
4.978048437E0,2.871892750E-1,9.729164124E0,1.131719947E0
4.983012500E0,2.465070039E-1,9.762663841E0,1.315968156E0
4.987975000E0,2.393339872E-1,9.772240639E0,1.299218416E0
4.992939062E0,2.536896169E-1,9.781807899E0,1.241795778E0
4.997901562E0,2.321513742E-1,9.721991539E0,1.129325747E0
5.002865625E0,2.082285136E-1,9.777029037E0,1.031220913E0
5.007828125E0,1.507963985E-1,9.829663277E0,9.642215967E-1
5.012790625E0,1.077295020E-1,9.767452240E0,8.828666210E-1
5.017754687E0,1.680729724E-2,9.872738838E0,8.756936789E-1
5.022717187E0,-1.669237576E-2,9.844018936E0,8.637226820E-1
5.027681250E0,-9.325893968E-2,9.844018936E0,8.206557035E-1
5.032643750E0,-1.052203774E-1,9.827268600E0,8.254441619E-1
5.037607812E0,-5.975927413E-2,9.879913330E0,8.230499029E-1
5.042570312E0,-1.243644133E-1,9.894268990E0,8.780878186E-1
5.047532812E0,-3.104800731E-2,9.906239510E0,9.474717975E-1
5.052496875E0,-2.336740959E-3,9.899056435E0,9.402987957E-1
5.057459375E0,-1.669237576E-2,9.860768318E0,9.307219982E-1
5.062423437E0,-2.147120051E-2,9.867951393E0,1.033615232E0
5.067385937E0,-1.429817267E-2,9.820096016E0,9.833656549E-1
5.072350000E0,-9.509769268E-3,9.863162994E0,9.642215967E-1
5.077312500E0,-2.865380608E-2,9.812912941E0,9.067991376E-1
5.082276562E0,-1.429817267E-2,9.839240074E0,8.206557035E-1
5.087239062E0,-4.779784381E-2,9.851201057E0,8.685110211E-1
5.092201562E0,-6.454767287E-2,9.872738838E0,7.680120468E-1
5.097165625E0,-5.019204319E-2,9.832057953E0,7.991175056E-1
5.102128125E0,2.451662440E-3,9.853595734E0,9.187605381E-1
5.107092187E0,-8.129751682E-2,9.875133514E0,9.307219982E-1
5.112054687E0,-8.129751682E-2,9.822490692E0,1.021653771E0
5.117017187E0,-1.602582783E-1,9.853595734E0,9.833656549E-1
5.121981250E0,-2.511900663E-1,9.860768318E0,9.953366518E-1
5.126943750E0,-2.822955251E-1,9.829663277E0,8.924434781E-1
5.131907812E0,-2.607572973E-1,9.848807335E0,8.374055624E-1
5.136870312E0,-3.038241863E-1,9.855990410E0,7.034068704E-1
5.141832812E0,-3.397180736E-1,9.827268600E0,6.651188135E-1
5.146796875E0,-3.612563312E-1,9.848807335E0,6.651188135E-1
5.151759375E0,-3.181893826E-1,9.822490692E0,6.196576953E-1
5.156723437E0,-3.134010136E-1,9.824884415E0,6.435901523E-1
5.161685937E0,-2.894685566E-1,9.779414177E0,6.986184716E-1
5.166650000E0,-2.655456960E-1,9.748308182E0,8.517611623E-1
5.171612500E0,-1.794023216E-1,9.808135033E0,9.594427943E-1
5.176575000E0,-1.746139228E-1,9.779414177E0,9.690100551E-1
5.181539062E0,-4.300943762E-2,9.762663841E0,9.905482531E-1
5.186501562E0,5.030696467E-2,9.736346245E0,9.355103970E-1
5.191465625E0,9.098923951E-2,9.710029602E0,9.785868526E-1
5.196428125E0,2.058342993E-1,9.681308746E0,9.785868526E-1
5.201392187E0,2.512954175E-1,9.710029602E0,9.522601962E-1
5.206354687E0,2.584780157E-1,9.717203140E0,9.881540537E-1
5.211317187E0,2.752278447E-1,9.671741486E0,1.050364971E0
5.216281250E0,2.967565060E-1,9.695664406E0,1.126941204E0
5.221243750E0,2.536896169E-1,9.748308182E0,1.124547005E0
5.226207812E0,2.489012182E-1,9.748308182E0,1.150864005E0
5.231170312E0,1.866902709E-1,9.736346245E0,1.067114830E0
5.236134375E0,1.890844703E-1,9.738740921E0,1.050364971E0
5.241096875E0,1.675462276E-1,9.726778984E0,9.714042544E-1
5.246059375E0,2.082285136E-1,9.714808464E0,9.690100551E-1
5.251023437E0,2.130073458E-1,9.731558800E0,8.924434781E-1
5.255985937E0,2.177957445E-1,9.745914459E0,8.732994199E-1
5.260950000E0,2.297571748E-1,9.738740921E0,8.804724813E-1
5.265912500E0,2.536896169E-1,9.695664406E0,8.613380194E-1
5.270875000E0,2.082285136E-1,9.757884979E0,9.905482531E-1
5.275839062E0,1.388349682E-1,9.738740921E0,9.283373356E-1
5.280801562E0,6.227797270E-2,9.872738838E0,9.522601962E-1
5.285765625E0,1.680729724E-2,9.841633797E0,9.546543956E-1
5.290728125E0,-9.565314651E-2,9.808135033E0,9.259431362E-1
5.295692187E0,-1.937579513E-1,9.875133514E0,8.278383017E-1
5.300654687E0,-1.626524776E-1,9.863162994E0,8.206557035E-1
5.305618750E0,-2.583630979E-1,9.855990410E0,8.541554213E-1
5.310581250E0,-3.110068142E-1,9.911018372E0,8.302229643E-1
5.315543750E0,-2.655456960E-1,9.889489174E0,7.440891862E-1
5.320507812E0,-3.110068142E-1,9.934949875E0,7.799734473E-1
5.325470312E0,-2.870743573E-1,9.944517136E0,8.326171637E-1
5.330432812E0,-3.110068142E-1,9.968450546E0,7.847618461E-1
5.335396875E0,-2.655456960E-1,9.932557106E0,9.163663387E-1
5.340359375E0,-1.650466919E-1,9.894268990E0,8.924434781E-1
5.345323437E0,-1.339412183E-1,9.877518654E0,8.876550794E-1
5.350285937E0,-4.721365869E-3,9.911018372E0,8.613380194E-1
5.355250000E0,6.466259807E-2,9.863162994E0,8.732994199E-1
5.360212500E0,1.077295020E-1,9.805740356E0,8.158673048E-1
5.365175000E0,2.106227130E-1,9.810519218E0,8.158673048E-1
5.370139062E0,1.675462276E-1,9.784202576E0,8.469727635E-1
5.375101562E0,1.771230400E-1,9.834450722E0,8.685110211E-1
5.380065625E0,1.603731960E-1,9.889489174E0,9.259431362E-1
5.385028125E0,2.010459006E-1,9.798557281E0,9.761926532E-1
5.389992187E0,4.791276529E-2,9.839240074E0,1.031220913E0
5.394954687E0,5.030696467E-2,9.827268600E0,1.043192029E0
5.399918750E0,-1.908657700E-2,9.903844833E0,9.833656549E-1
5.404881250E0,-6.694187969E-2,9.836845398E0,1.007298112E0
5.409843750E0,-5.975927413E-2,9.832057953E0,9.642215967E-1
5.414807812E0,-1.100087836E-1,9.875133514E0,8.589437604E-1
5.419770312E0,-6.454767287E-2,9.829663277E0,8.254441619E-1
5.424734375E0,-9.086474776E-2,9.879913330E0,8.445882201E-1
5.429696875E0,-6.454767287E-2,9.855990410E0,8.685110211E-1
5.434660937E0,-9.509769268E-3,9.853595734E0,9.067991376E-1
5.439623437E0,-4.721365869E-3,9.853595734E0,9.163663387E-1
5.444585937E0,1.920149848E-2,9.863162994E0,9.402987957E-1
5.449550000E0,1.077295020E-1,9.877518654E0,9.522601962E-1
5.454512500E0,1.627578288E-1,9.743529320E0,9.570485950E-1
5.459476562E0,1.603731960E-1,9.772240639E0,8.876550794E-1
5.464439062E0,1.364407688E-1,9.769846916E0,9.929425120E-1
5.469401562E0,3.015449345E-1,9.781807899E0,9.211547375E-1
5.474365625E0,4.163995683E-1,9.781807899E0,9.379045963E-1
5.479328125E0,4.116111398E-1,9.724386215E0,9.283373356E-1
5.484292187E0,4.451108277E-1,9.765057564E0,9.091932774E-1
5.489254687E0,4.881873131E-1,9.741134644E0,9.953366518E-1
5.494218750E0,5.647538304E-1,9.760279655E0,1.057547569E0
5.499181250E0,5.240811706E-1,9.777029037E0,1.146075726E0
5.504143750E0,5.145043731E-1,9.772240639E0,1.208296180E0
5.509107812E0,4.881873131E-1,9.738740921E0,1.237007499E0
5.514070312E0,4.092265368E-1,9.803345680E0,1.248968840E0
5.519034375E0,3.589770198E-1,9.798557281E0,1.268112898E0
5.523996875E0,3.685442507E-1,9.793779373E0,1.308795214E0
5.528959375E0,2.512954175E-1,9.824884415E0,1.253757238E0
5.533923437E0,2.058342993E-1,9.796163559E0,1.095826149E0
5.538885937E0,9.338344634E-2,9.817702293E0,1.071903229E0
5.543850000E0,6.705679744E-2,9.855990410E0,9.570485950E-1
5.548812500E0,2.159569971E-2,9.887095451E0,8.541554213E-1
5.553775000E0,2.638410218E-2,9.894268990E0,8.589437604E-1
5.558739062E0,-5.258624628E-2,9.944517136E0,9.259431362E-1
5.563701562E0,-5.497087166E-2,9.911018372E0,9.426929951E-1
5.568665625E0,-7.890331000E-2,9.872738838E0,9.307219982E-1
5.573628125E0,-1.243644133E-1,9.908634186E0,8.709052205E-1
5.578592187E0,-1.530852467E-1,9.891883850E0,7.871560454E-1
5.583554687E0,-2.440074682E-1,9.901451111E0,7.201567292E-1
5.588517187E0,-2.583630979E-1,9.970844269E0,6.866570711E-1
5.593481250E0,-3.588621020E-1,9.879913330E0,6.842628121E-1
5.598443750E0,-3.684388995E-1,9.930162430E0,6.962338090E-1
5.603407812E0,-3.516891003E-1,9.951700211E0,7.249451280E-1
5.608370312E0,-3.110068142E-1,9.918201447E0,7.488679886E-1
5.613334375E0,-2.966511548E-1,9.951700211E0,8.685110211E-1
5.618296875E0,-2.176903933E-1,9.973237991E0,9.402987957E-1
5.623259375E0,-1.363354176E-1,1.000195026E1,1.014471173E0
5.628223437E0,7.240065839E-3,9.968450546E0,1.033615232E0
5.633185937E0,9.576806426E-2,9.932557106E0,1.021653771E0
5.638150000E0,1.125083268E-1,9.925383568E0,1.016865373E0
5.643112500E0,2.177957445E-1,9.870346069E0,1.043192029E0
5.648075000E0,2.106227130E-1,9.851201057E0,1.162825465E0
5.653039062E0,3.852941096E-1,9.796163559E0,1.165219545E0
5.658001562E0,3.948709071E-1,9.817702293E0,1.201113582E0
5.662965625E0,3.565828204E-1,9.726778984E0,1.215469122E0
5.667928125E0,4.187937677E-1,9.707635880E0,1.167613864E0
5.672890625E0,4.666490853E-1,9.736346245E0,1.126941204E0
5.677854687E0,5.647538304E-1,9.733952522E0,1.043192029E0
5.682817187E0,5.432252288E-1,9.707635880E0,9.737984538E-1
5.687781250E0,5.886863470E-1,9.669347763E0,9.450871348E-1
5.692745312E0,5.264754295E-1,9.733952522E0,9.977213144E-1
5.697706250E0,4.283609986E-1,9.743529320E0,9.450871348E-1
5.702671875E0,3.852941096E-1,9.712413788E0,8.302229643E-1
5.707632812E0,3.087275028E-1,9.719596863E0,7.153682709E-1
5.712596875E0,2.800066769E-1,9.772240639E0,6.292344928E-1
5.717559375E0,1.531905979E-1,9.800951958E0,4.952358305E-1
5.722523437E0,7.184520364E-2,9.846412659E0,5.406969786E-1
5.727485937E0,-3.583640978E-2,9.882307053E0,5.359085202E-1
5.732448437E0,-1.243644133E-1,9.918201447E0,5.933406353E-1
5.737412500E0,-2.296518236E-1,9.922988892E0,5.957348347E-1
5.742376562E0,-2.535746992E-1,9.961267471E0,6.053020358E-1
5.747339062E0,-3.564679027E-1,9.896661758E0,6.746956110E-1
5.752301562E0,-4.139000177E-1,9.903844833E0,6.794840097E-1
5.757264062E0,-3.827945590E-1,9.937344551E0,7.632332444E-1
5.762228125E0,-3.756119311E-1,9.915806770E0,7.871560454E-1
5.767192187E0,-4.067174196E-1,9.932557106E0,8.445882201E-1
5.772154687E0,-3.588621020E-1,9.872738838E0,8.206557035E-1
5.777117187E0,-2.416132689E-1,9.908634186E0,8.278383017E-1
5.782081250E0,-8.608591557E-2,9.891883850E0,8.063001037E-1
5.787045312E0,5.988377333E-2,9.877518654E0,7.799734473E-1
5.792007812E0,9.576806426E-2,9.841633797E0,8.230499029E-1
5.796970312E0,1.531905979E-1,9.896661758E0,8.374055624E-1
5.801932812E0,1.244793311E-1,9.906239510E0,9.139720798E-1
5.806896875E0,1.771230400E-1,9.930162430E0,1.112575889E0
5.811859375E0,2.082285136E-1,9.872738838E0,1.148469806E0
5.816823437E0,2.201899439E-1,9.827268600E0,1.170008063E0
5.821785937E0,1.723346412E-1,9.889489174E0,1.304006696E0
5.826750000E0,1.842960715E-1,9.882307053E0,1.158046603E0
5.831714062E0,1.268735379E-1,9.848807335E0,1.086258888E0
5.836675000E0,2.225841433E-1,9.851201057E0,1.103008628E0
5.841639062E0,2.584780157E-1,9.736346245E0,9.402987957E-1
5.846603125E0,1.986517012E-1,9.671741486E0,8.565496206E-1
5.851565625E0,1.627578288E-1,9.762663841E0,7.536563873E-1
5.856528125E0,1.507963985E-1,9.767452240E0,5.909464359E-1
5.861490625E0,8.141243458E-2,9.774634361E0,5.215529203E-1
5.866454687E0,7.902780920E-2,9.781807899E0,5.502641797E-1
5.871417187E0,4.791276529E-2,9.786596298E0,6.053020358E-1
5.876381250E0,7.423940301E-2,9.796163559E0,7.081953287E-1
5.881343750E0,1.172967330E-1,9.733952522E0,7.273392677E-1
5.886307812E0,1.101237014E-1,9.779414177E0,7.153682709E-1
5.891270312E0,1.460079998E-1,9.707635880E0,7.608389854E-1
5.896232812E0,2.297571748E-1,9.784202576E0,8.972222805E-1
5.901196875E0,2.441223711E-1,9.772240639E0,8.780878186E-1
5.906159375E0,3.015449345E-1,9.767452240E0,9.450871348E-1
5.911123437E0,3.278715611E-1,9.784202576E0,9.546543956E-1
5.916085937E0,3.015449345E-1,9.750701904E0,1.043192029E0
5.921050000E0,3.685442507E-1,9.750701904E0,1.038403511E0
5.926012500E0,3.948709071E-1,9.753096581E0,1.134114146E0
5.930975000E0,3.589770198E-1,9.741134644E0,1.196325064E0
5.935939062E0,3.446213901E-1,9.810519218E0,1.277689695E0
5.940903125E0,2.847950757E-1,9.777029037E0,1.265718579E0
5.945867187E0,2.895835042E-1,9.855990410E0,1.160440803E0
5.950828125E0,1.866902709E-1,9.903844833E0,9.953366518E-1
5.955792187E0,1.196909323E-1,9.911018372E0,9.211547375E-1
5.960754687E0,1.220851392E-1,9.891883850E0,8.756936789E-1
5.965717187E0,5.270116776E-2,9.901451111E0,7.704062462E-1
5.970681250E0,8.380663395E-2,9.879913330E0,6.938396692E-1
5.975643750E0,3.116292879E-2,9.891883850E0,7.440891862E-1
5.980607812E0,-9.804734588E-2,9.889489174E0,8.206557035E-1
5.985571875E0,-5.736507475E-2,9.889489174E0,9.044048786E-1
5.990534375E0,-3.344221041E-2,9.855990410E0,9.091932774E-1
5.995496875E0,1.202846877E-2,9.903844833E0,9.283373356E-1
6.000459375E0,4.791276529E-2,9.922988892E0,8.852608800E-1
6.005423437E0,7.663360238E-2,9.817702293E0,8.039059043E-1
6.010385937E0,6.227797270E-2,9.848807335E0,7.919444442E-1
6.015350000E0,6.466259807E-2,9.834450722E0,7.895502448E-1
6.020312500E0,6.945100427E-2,9.820096016E0,7.847618461E-1
6.025276562E0,1.675462276E-1,9.808135033E0,6.340133548E-1
6.030239062E0,1.484021842E-1,9.800951958E0,7.129837275E-1
6.035201562E0,1.651520431E-1,9.812912941E0,7.153682709E-1
6.040165625E0,7.423940301E-2,9.808135033E0,8.158673048E-1
6.045129687E0,9.338344634E-2,9.867951393E0,8.780878186E-1
6.050092187E0,2.877830528E-2,9.836845398E0,8.996165395E-1
6.055054687E0,1.364407688E-1,9.870346069E0,9.666158557E-1
6.060018750E0,9.098923951E-2,9.939739227E0,9.833656549E-1
6.064981250E0,4.313393682E-2,9.961267471E0,9.259431362E-1
6.069943750E0,-4.061523825E-2,9.956489563E0,9.044048786E-1
6.074907812E0,-2.386540174E-2,9.951700211E0,9.211547375E-1
6.079871875E0,-2.386540174E-2,9.827268600E0,8.924434781E-1
6.084834375E0,-2.865380608E-2,9.803345680E0,8.517611623E-1
6.089796875E0,-7.115567569E-3,9.848807335E0,7.560505867E-1
6.094760937E0,7.902780920E-2,9.834450722E0,8.015117049E-1
6.099723437E0,1.202846877E-2,9.894268990E0,8.158673048E-1
6.104685937E0,4.073973373E-2,9.882307053E0,8.230499029E-1
6.109650000E0,3.595133126E-2,9.899056435E0,8.397997618E-1
6.114612500E0,3.116292879E-2,9.822490692E0,9.211547375E-1
6.119576562E0,4.073973373E-2,9.841633797E0,8.206557035E-1
6.124539062E0,8.859504014E-2,9.844018936E0,7.943387032E-1
6.129501562E0,1.292581707E-1,9.772240639E0,7.871560454E-1
6.134465625E0,6.945100427E-2,9.817702293E0,8.110885024E-1
6.139428125E0,2.159569971E-2,9.820096016E0,8.230499029E-1
6.144392187E0,9.634267539E-3,9.851201057E0,9.283373356E-1
6.149354687E0,6.227797270E-2,9.836845398E0,9.402987957E-1
6.154318750E0,1.101237014E-1,9.867951393E0,8.637226820E-1
6.159281250E0,1.627578288E-1,9.803345680E0,9.187605381E-1
6.164243750E0,2.034401149E-1,9.820096016E0,9.522601962E-1
6.169207812E0,1.795076579E-1,9.800951958E0,9.977213144E-1
6.174170312E0,2.034401149E-1,9.777029037E0,9.642215967E-1
6.179134375E0,2.273725420E-1,9.755491257E0,9.929425120E-1
6.184096875E0,2.369397730E-1,9.834450722E0,9.450871348E-1
6.189060937E0,2.536896169E-1,9.753096581E0,9.881540537E-1
6.194023437E0,1.986517012E-1,9.803345680E0,9.905482531E-1
6.198985937E0,1.723346412E-1,9.863162994E0,9.618370533E-1
6.203950000E0,1.914786696E-1,9.767452240E0,9.331161380E-1
6.208912500E0,2.034401149E-1,9.788990021E0,8.661168218E-1
6.213876562E0,1.651520431E-1,9.841633797E0,8.397997618E-1
6.218839062E0,1.866902709E-1,9.800951958E0,7.704062462E-1
6.223803125E0,1.842960715E-1,9.779414177E0,7.464833260E-1
6.228765625E0,1.866902709E-1,9.784202576E0,8.326171637E-1
6.233728125E0,1.412291676E-1,9.779414177E0,8.039059043E-1
6.238692187E0,1.699404269E-1,9.822490692E0,9.426929951E-1
6.243654687E0,1.412291676E-1,9.810519218E0,9.857599139E-1
6.248618750E0,1.723346412E-1,9.791384697E0,9.809715152E-1
6.253581250E0,1.244793311E-1,9.800951958E0,9.785868526E-1
6.258545312E0,1.125083268E-1,9.798557281E0,9.642215967E-1
6.263507812E0,1.441309415E-2,9.870346069E0,8.924434781E-1
6.268470312E0,3.834553435E-2,9.836845398E0,8.804724813E-1
6.273434375E0,-3.344221041E-2,9.879913330E0,8.589437604E-1
6.278398437E0,-2.147120051E-2,9.875133514E0,8.326171637E-1
6.283360937E0,4.073973373E-2,9.851201057E0,7.728003860E-1
6.288323437E0,1.196909323E-1,9.879913330E0,7.321181893E-1
6.293287500E0,1.412291676E-1,9.896661758E0,7.512621880E-1
6.298251562E0,1.866902709E-1,9.875133514E0,6.435901523E-1
6.303214062E0,1.890844703E-1,9.800951958E0,6.986184716E-1
6.308176562E0,2.010459006E-1,9.779414177E0,7.440891862E-1
6.313139062E0,1.890844703E-1,9.779414177E0,7.249451280E-1
6.318103125E0,2.297571748E-1,9.810519218E0,7.201567292E-1
6.323065625E0,1.340465695E-1,9.784202576E0,8.804724813E-1
6.328029687E0,1.196909323E-1,9.781807899E0,9.666158557E-1
6.332992187E0,4.552813992E-2,9.879913330E0,1.038403511E0
6.337956250E0,4.073973373E-2,9.793779373E0,1.016865373E0
6.342918750E0,3.355713189E-2,9.827268600E0,9.809715152E-1
6.347881250E0,2.451662440E-3,9.798557281E0,9.115875363E-1
6.352845312E0,5.509537086E-2,9.834450722E0,6.124846935E-1
6.357807812E0,5.509537086E-2,9.712413788E0,6.029078960E-1
6.362771875E0,5.748957023E-2,9.777029037E0,7.225509286E-1
6.367734375E0,8.141243458E-2,9.779414177E0,6.579458117E-1
6.372696875E0,6.705679744E-2,9.765057564E0,6.938396692E-1
6.377660937E0,1.316523552E-1,9.793779373E0,7.225509286E-1
6.382623437E0,1.388349682E-1,9.755491257E0,8.685110211E-1
6.387587500E0,1.005468965E-1,9.798557281E0,9.331161380E-1
6.392550000E0,1.029410958E-1,9.827268600E0,9.020106792E-1
6.397514062E0,1.029410958E-1,9.800951958E0,9.115875363E-1
6.402476562E0,2.034401149E-1,9.786596298E0,8.876550794E-1
6.407439062E0,2.345455736E-1,9.812912941E0,8.661168218E-1
6.412403125E0,2.465070039E-1,9.772240639E0,7.991175056E-1
6.417365625E0,2.082285136E-1,9.824884415E0,8.517611623E-1
6.422329687E0,2.345455736E-1,9.753096581E0,9.020106792E-1
6.427292187E0,2.225841433E-1,9.784202576E0,9.881540537E-1
6.432254687E0,2.536896169E-1,9.820096016E0,9.905482531E-1
6.437218750E0,3.398329914E-1,9.767452240E0,1.028836250E0
6.442181250E0,2.943718731E-1,9.774634361E0,1.112575889E0
6.447145312E0,2.704394460E-1,9.815307617E0,1.110191226E0
6.452107812E0,3.278715611E-1,9.796163559E0,1.091047287E0
6.457070312E0,3.709384501E-1,9.839240074E0,1.052759290E0
6.462034375E0,3.924766779E-1,9.755491257E0,9.737984538E-1
6.466996875E0,5.121101737E-1,9.772240639E0,9.379045963E-1
6.471960937E0,5.097255707E-1,9.784202576E0,9.163663387E-1
6.476923437E0,4.666490853E-1,9.791384697E0,9.115875363E-1
6.481887500E0,3.900824785E-1,9.810519218E0,9.690100551E-1
6.486850000E0,3.828999102E-1,9.774634361E0,1.091047287E0
6.491812500E0,3.015449345E-1,9.767452240E0,1.083864689E0
6.496776562E0,2.656510174E-1,9.781807899E0,1.047970772E0
6.501739062E0,2.560837865E-1,9.803345680E0,9.785868526E-1
6.506703125E0,2.489012182E-1,9.867951393E0,1.009692311E0
6.511665625E0,2.321513742E-1,9.834450722E0,1.040797710E0
6.516629687E0,2.584780157E-1,9.887095451E0,9.546543956E-1
6.521592187E0,1.771230400E-1,9.822490692E0,8.780878186E-1
6.526554687E0,1.005468965E-1,9.889489174E0,8.302229643E-1
6.531518750E0,7.663360238E-2,9.911018372E0,7.105894685E-1
6.536481250E0,4.073973373E-2,9.968450546E0,8.182615638E-1
6.541445312E0,-1.669237576E-2,1.002826691E1,6.794840097E-1
6.546407812E0,-1.554698795E-1,9.958883286E0,7.488679886E-1
6.551371875E0,-1.435084492E-1,9.982805252E0,7.847618461E-1
6.556334375E0,-2.416132689E-1,1.003784370E1,7.201567292E-1
6.561296875E0,-2.392190546E-1,9.987594604E0,7.010126710E-1
6.566260937E0,-2.440074682E-1,1.002348804E1,6.770898700E-1
6.571223437E0,-1.937579513E-1,9.930162430E0,5.622351766E-1
6.576187500E0,-1.028357521E-1,9.982805252E0,5.071972609E-1
6.581150000E0,-1.028357521E-1,9.906239510E0,5.478699207E-1
6.586114062E0,2.159569971E-2,9.954094887E0,6.411958933E-1
6.591076562E0,7.902780920E-2,9.906239510E0,6.746956110E-1
6.596039062E0,1.388349682E-1,9.889489174E0,7.823676467E-1
6.601003125E0,1.962575018E-1,9.860768318E0,9.379045963E-1
6.605965625E0,1.747288406E-1,9.877518654E0,1.000115514E0
6.610929687E0,2.512954175E-1,9.841633797E0,1.043192029E0
6.615892187E0,2.273725420E-1,9.839240074E0,1.069509029E0
6.620856250E0,3.302561939E-1,9.855990410E0,1.059941769E0
6.625818750E0,3.182947338E-1,9.805740356E0,1.064720750E0
6.630781250E0,2.895835042E-1,9.779414177E0,9.355103970E-1
6.635745312E0,2.680452466E-1,9.777029037E0,8.445882201E-1
6.640707812E0,2.489012182E-1,9.796163559E0,8.015117049E-1
6.645671875E0,2.584780157E-1,9.786596298E0,7.464833260E-1
6.650634375E0,2.608722150E-1,9.777029037E0,6.244460940E-1
6.655598437E0,2.345455736E-1,9.800951958E0,6.986184716E-1
6.660560937E0,1.890844703E-1,9.796163559E0,7.177625299E-1
6.665523437E0,1.795076579E-1,9.750701904E0,9.402987957E-1
6.670487500E0,2.154015303E-1,9.803345680E0,9.546543956E-1
6.675450000E0,2.441223711E-1,9.760279655E0,9.977213144E-1
6.680414062E0,2.297571748E-1,9.791384697E0,1.043192029E0
6.685376562E0,2.800066769E-1,9.846412659E0,1.028836250E0
6.690340625E0,2.680452466E-1,9.798557281E0,1.138902545E0
6.695303125E0,2.201899439E-1,9.772240639E0,1.126941204E0
6.700265625E0,2.393339872E-1,9.798557281E0,1.095826149E0
6.705229687E0,2.536896169E-1,9.865556717E0,9.498660564E-1
6.710192187E0,1.819018722E-1,9.865556717E0,9.331161380E-1
6.715156250E0,1.795076579E-1,9.896661758E0,8.517611623E-1
6.720118750E0,1.627578288E-1,9.865556717E0,6.938396692E-1
6.725081250E0,1.675462276E-1,9.844018936E0,6.938396692E-1
6.730045312E0,1.747288406E-1,9.896661758E0,6.986184716E-1
6.735007812E0,1.412291676E-1,9.870346069E0,6.986184716E-1
6.739971875E0,9.576806426E-2,9.901451111E0,8.924434781E-1
6.744934375E0,5.748957023E-2,9.930162430E0,8.732994199E-1
6.749898437E0,4.313393682E-2,9.882307053E0,1.028836250E0
6.754860937E0,4.313393682E-2,9.918201447E0,9.379045963E-1
6.759825000E0,1.441309415E-2,9.867951393E0,1.007298112E0
6.764787500E0,6.945100427E-2,9.875133514E0,9.522601962E-1
6.769750000E0,1.316523552E-1,9.827268600E0,9.211547375E-1
6.774714062E0,1.651520431E-1,9.784202576E0,7.991175056E-1
6.779676562E0,2.225841433E-1,9.796163559E0,8.230499029E-1
6.784640625E0,1.579789966E-1,9.803345680E0,7.704062462E-1
6.789603125E0,1.005468965E-1,9.760279655E0,8.158673048E-1
6.794567187E0,1.388349682E-1,9.753096581E0,8.637226820E-1
6.799529687E0,1.819018722E-1,9.762663841E0,8.876550794E-1
6.804493750E0,2.010459006E-1,9.674136162E0,9.737984538E-1
6.809456250E0,2.106227130E-1,9.719596863E0,9.355103970E-1
6.814418750E0,2.728336453E-1,9.741134644E0,9.163663387E-1
6.819382812E0,2.943718731E-1,9.681308746E0,7.967232466E-1
6.824345312E0,3.159005344E-1,9.676529884E0,7.512621880E-1
6.829307812E0,4.020439088E-1,9.659780502E0,7.464833260E-1
6.834270312E0,4.068323374E-1,9.635848045E0,8.517611623E-1
6.839235937E0,4.690432847E-1,9.640635490E0,8.493670225E-1
6.844198437E0,5.073313117E-1,9.638241768E0,8.326171637E-1
6.849160937E0,5.168985724E-1,9.633453369E0,8.637226820E-1
6.854125000E0,4.259763658E-1,9.628664970E0,8.397997618E-1
6.859087500E0,3.589770198E-1,9.614309311E0,7.895502448E-1
6.864051562E0,3.494002223E-1,9.700452805E0,7.608389854E-1
6.869014062E0,2.847950757E-1,9.659780502E0,6.914454103E-1
6.873976562E0,1.938728839E-1,9.726778984E0,7.512621880E-1
6.878940625E0,9.815269709E-2,9.793779373E0,6.866570711E-1
6.883903125E0,2.451662440E-3,9.812912941E0,7.034068704E-1
6.888867187E0,-3.583640978E-2,9.824884415E0,5.239470601E-1
6.893829687E0,-1.363354176E-1,9.798557281E0,4.378037155E-1
6.898792187E0,-2.200750262E-1,9.805740356E0,4.569477439E-1
6.903754687E0,-2.176903933E-1,9.824884415E0,5.119856596E-1
6.908718750E0,-2.296518236E-1,9.832057953E0,5.167644620E-1
6.913681250E0,-2.224692255E-1,9.903844833E0,6.507631540E-1
6.918645312E0,-1.530852467E-1,9.882307053E0,7.512621880E-1
6.923607812E0,-1.339412183E-1,9.920595169E0,8.374055624E-1
6.928570312E0,-4.540364072E-2,9.906239510E0,9.402987957E-1
6.933534375E0,2.638410218E-2,9.956489563E0,1.019259572E0
6.938496875E0,7.663360238E-2,9.858384132E0,1.031220913E0
6.943460937E0,1.914786696E-1,9.844018936E0,1.038403511E0
6.948423437E0,2.512954175E-1,9.829663277E0,1.100614548E0
6.953387500E0,2.512954175E-1,9.863162994E0,1.004903913E0
6.958350000E0,2.800066769E-1,9.827268600E0,9.905482531E-1
6.963314062E0,3.446213901E-1,9.781807899E0,9.905482531E-1
6.968276562E0,3.087275028E-1,9.769846916E0,9.714042544E-1
6.973239062E0,3.206889629E-1,9.743529320E0,8.661168218E-1
6.978203125E0,3.565828204E-1,9.757884979E0,8.804724813E-1
6.983165625E0,3.159005344E-1,9.693280220E0,8.015117049E-1
6.988129687E0,2.680452466E-1,9.767452240E0,9.163663387E-1
6.993093750E0,2.225841433E-1,9.805740356E0,8.804724813E-1
6.998056250E0,1.531905979E-1,9.827268600E0,9.044048786E-1
7.003018750E0,8.620083332E-2,9.832057953E0,8.374055624E-1
7.007982812E0,5.270116776E-2,9.812912941E0,8.493670225E-1
7.012945312E0,-6.454767287E-2,9.820096016E0,9.235489368E-1
7.017909375E0,-4.061523825E-2,9.832057953E0,8.661168218E-1
7.022871875E0,-2.625960298E-2,9.808135033E0,8.445882201E-1
7.027835937E0,1.680729724E-2,9.824884415E0,8.445882201E-1
7.032798437E0,-2.147120051E-2,9.791384697E0,8.565496206E-1
7.037760937E0,9.576806426E-2,9.827268600E0,8.469727635E-1
7.042723437E0,1.077295020E-1,9.829663277E0,8.063001037E-1
7.047685937E0,1.890844703E-1,9.788990021E0,7.991175056E-1
7.052650000E0,3.828999102E-1,9.779414177E0,7.895502448E-1
7.057612500E0,4.618606567E-1,9.760279655E0,7.847618461E-1
7.062576562E0,4.881873131E-1,9.805740356E0,7.105894685E-1
7.067539062E0,5.001487136E-1,9.841633797E0,8.517611623E-1
7.072503125E0,5.073313117E-1,9.777029037E0,8.589437604E-1
7.077465625E0,4.953603148E-1,9.800951958E0,8.876550794E-1
7.082429687E0,4.905815125E-1,9.817702293E0,8.972222805E-1
7.087392187E0,4.235821664E-1,9.863162994E0,9.163663387E-1
7.092354687E0,4.187937677E-1,9.846412659E0,8.924434781E-1
7.097318750E0,3.613712192E-1,9.870346069E0,8.469727635E-1
7.102281250E0,3.063333035E-1,9.944517136E0,8.565496206E-1
7.107245312E0,2.058342993E-1,9.920595169E0,8.469727635E-1
7.112207812E0,2.010459006E-1,9.946911812E0,9.091932774E-1
7.117171875E0,7.663360238E-2,1.001870060E1,8.948376179E-1
7.122134375E0,-1.669237576E-2,1.005698872E1,8.206557035E-1
7.127096875E0,-1.554698795E-1,1.007134342E1,8.780878186E-1
7.132060937E0,-1.913637519E-1,1.008809376E1,8.015117049E-1
7.137023437E0,-1.889695525E-1,1.010962200E1,8.421939611E-1
7.141987500E0,-3.014395833E-1,1.011680508E1,7.249451280E-1
7.146950000E0,-3.923617899E-1,1.001870060E1,7.632332444E-1
7.151914062E0,-3.732177317E-1,1.002348804E1,7.871560454E-1
7.156876562E0,-3.636505008E-1,1.005459404E1,7.416949272E-1
7.161839062E0,-2.703245282E-1,1.010484314E1,7.728003860E-1
7.166803125E0,-2.703245282E-1,1.006416130E1,7.919444442E-1
7.171765625E0,-2.224692255E-1,1.004023838E1,7.416949272E-1
7.176729687E0,-9.565314651E-2,9.992383003E0,7.488679886E-1
7.181692187E0,-5.019204319E-2,9.906239510E0,7.656177878E-1
7.186654687E0,8.859504014E-2,9.925383568E0,7.895502448E-1
7.191618750E0,1.268735379E-1,9.841633797E0,8.996165395E-1
7.196582812E0,1.795076579E-1,9.815307617E0,8.732994199E-1
7.201545312E0,3.494002223E-1,9.803345680E0,9.115875363E-1
7.206507812E0,3.087275028E-1,9.779414177E0,9.881540537E-1
7.211470312E0,2.776220441E-1,9.779414177E0,1.000115514E0
7.216434375E0,3.541886210E-1,9.714808464E0,9.737984538E-1
7.221396875E0,2.943718731E-1,9.712413788E0,1.045586228E0
7.226360937E0,2.704394460E-1,9.702846527E0,1.045586228E0
7.231323437E0,2.154015303E-1,9.750701904E0,1.012086511E0
7.236287500E0,2.656510174E-1,9.707635880E0,9.761926532E-1
7.241250000E0,2.225841433E-1,9.710029602E0,9.020106792E-1
7.246212500E0,1.603731960E-1,9.721991539E0,7.823676467E-1
7.251176562E0,1.555848122E-1,9.729164124E0,7.201567292E-1
7.256139062E0,9.098923951E-2,9.726778984E0,6.531573534E-1
7.261103125E0,-1.190397050E-2,9.705241203E0,5.741965771E-1
7.266065625E0,-3.822103515E-2,9.753096581E0,5.957348347E-1
7.271029687E0,-1.052203774E-1,9.827268600E0,5.646198392E-1
7.275992187E0,-1.482968628E-1,9.781807899E0,6.723014116E-1
7.280954687E0,-1.817965209E-1,9.788990021E0,6.124846935E-1
7.285918750E0,-1.937579513E-1,9.767452240E0,7.153682709E-1
7.290882812E0,-1.650466919E-1,9.700452805E0,6.196576953E-1
7.295845312E0,-6.694187969E-2,9.719596863E0,6.388017535E-1
7.300807812E0,-6.933607906E-2,9.743529320E0,6.579458117E-1
7.305771875E0,-2.865380608E-2,9.721991539E0,6.220518947E-1
7.310734375E0,2.638410218E-2,9.733952522E0,7.536563873E-1
7.315696875E0,4.073973373E-2,9.688490868E0,7.058010697E-1
7.320660937E0,1.149025261E-1,9.729164124E0,7.297335267E-1
7.325623437E0,9.815269709E-2,9.714808464E0,8.086943030E-1
7.330587500E0,1.460079998E-1,9.686098099E0,7.608389854E-1
7.335550000E0,2.106227130E-1,9.731558800E0,7.871560454E-1
7.340514062E0,2.728336453E-1,9.669347763E0,8.565496206E-1
7.345476562E0,3.254773617E-1,9.695664406E0,7.656177878E-1
7.350439062E0,3.470060229E-1,9.714808464E0,8.589437604E-1
7.355403125E0,3.661500514E-1,9.702846527E0,7.919444442E-1
7.360365625E0,3.517944217E-1,9.738740921E0,8.086943030E-1
7.365329687E0,3.565828204E-1,9.726778984E0,8.565496206E-1
7.370292187E0,3.159005344E-1,9.731558800E0,9.546543956E-1
7.375256250E0,2.752278447E-1,9.733952522E0,9.881540537E-1
7.380218750E0,1.890844703E-1,9.810519218E0,9.498660564E-1
7.385181250E0,1.555848122E-1,9.896661758E0,9.067991376E-1
7.390145312E0,8.859504014E-2,9.832057953E0,9.067991376E-1
7.395107812E0,1.125083268E-1,9.829663277E0,8.685110211E-1
7.400071875E0,5.030696467E-2,9.879913330E0,8.780878186E-1
7.405034375E0,5.509537086E-2,9.949306488E0,8.637226820E-1
7.409998437E0,6.227797270E-2,9.987594604E0,9.020106792E-1
7.414960937E0,7.663360238E-2,9.951700211E0,8.661168218E-1
7.419923437E0,1.125083268E-1,1.000434399E1,6.866570711E-1
7.424887500E0,1.125083268E-1,1.006655502E1,7.393007874E-1
7.429850000E0,9.815269709E-2,1.007613182E1,5.981194377E-1
7.434814062E0,1.484021842E-1,9.994767189E0,6.172634959E-1
7.439776562E0,1.699404269E-1,1.002109337E1,6.962338090E-1
7.444740625E0,2.273725420E-1,1.001870060E1,7.895502448E-1
7.449703125E0,2.393339872E-1,1.004741096E1,7.847618461E-1
7.454665625E0,2.967565060E-1,1.005938148E1,8.924434781E-1
7.459629687E0,3.302561939E-1,1.006176662E1,1.021653771E0
7.464592187E0,3.852941096E-1,1.002826691E1,1.026442170E0
7.469556250E0,3.948709071E-1,9.997160912E0,1.040797710E0
7.474518750E0,4.163995683E-1,9.954094887E0,1.114970207E0
7.479482812E0,5.025429130E-1,9.956489563E0,1.244190097E0
7.484445312E0,5.073313117E-1,9.946911812E0,1.339900613E0
7.489407812E0,5.145043731E-1,9.963662148E0,1.392544270E0
7.494371875E0,4.714374840E-1,9.915806770E0,1.521754622E0
7.499334375E0,3.637558520E-1,9.863162994E0,1.516966224E0
7.504298437E0,3.182947338E-1,9.896661758E0,1.469110847E0
7.509260937E0,2.991507351E-1,9.879913330E0,1.445178509E0
7.514225000E0,2.967565060E-1,9.817702293E0,1.289651155E0
7.519187500E0,2.584780157E-1,9.786596298E0,1.076691628E0
7.524150000E0,2.536896169E-1,9.717203140E0,9.211547375E-1
7.529114062E0,1.244793311E-1,9.724386215E0,8.374055624E-1
7.534076562E0,5.270116776E-2,9.839240074E0,7.153682709E-1
7.539040625E0,5.746084207E-5,9.865556717E0,5.454853773E-1
7.544003125E0,-1.554698795E-1,9.788990021E0,3.516603410E-1
7.548967187E0,-1.794023216E-1,9.875133514E0,1.578449309E-1
7.553929687E0,-1.889695525E-1,9.755491257E0,4.538448900E-2
7.558892187E0,-3.205740452E-1,9.793779373E0,-8.383536339E-2
7.563856250E0,-2.775071263E-1,9.733952522E0,-1.269022673E-1
7.568818750E0,-3.397180736E-1,9.745914459E0,-6.229712814E-2
7.573782812E0,-2.775071263E-1,9.748308182E0,5.974011868E-2
7.578745312E0,-3.636505008E-1,9.779414177E0,2.679111660E-1
7.583709375E0,-3.564679027E-1,9.757884979E0,3.779869974E-1
7.588671875E0,-2.799013257E-1,9.774634361E0,4.569477439E-1
7.593634375E0,-2.775071263E-1,9.774634361E0,5.981194377E-1
7.598598437E0,-1.794023216E-1,9.786596298E0,6.005136967E-1
7.603560937E0,-1.147971824E-1,9.788990021E0,6.388017535E-1
7.608523437E0,-2.147120051E-2,9.820096016E0,6.220518947E-1
7.613487500E0,6.466259807E-2,9.774634361E0,6.340133548E-1
7.618450000E0,1.460079998E-1,9.743529320E0,6.675130129E-1
7.623414062E0,1.292581707E-1,9.719596863E0,7.369065285E-1
7.628376562E0,2.082285136E-1,9.666953087E0,8.493670225E-1
7.633340625E0,2.656510174E-1,9.726778984E0,9.809715152E-1
7.638303125E0,2.704394460E-1,9.755491257E0,1.009692311E0
7.643265625E0,3.063333035E-1,9.741134644E0,9.642215967E-1
7.648229687E0,3.972555101E-1,9.765057564E0,9.546543956E-1
7.653192187E0,4.140053689E-1,9.748308182E0,8.685110211E-1
7.658156250E0,4.642548561E-1,9.748308182E0,8.397997618E-1
7.663118750E0,4.929757118E-1,9.781807899E0,8.613380194E-1
7.668082812E0,5.288599730E-1,9.796163559E0,9.163663387E-1
7.673045312E0,5.145043731E-1,9.803345680E0,9.570485950E-1
7.678007812E0,5.288599730E-1,9.762663841E0,8.637226820E-1
7.682971875E0,5.551866293E-1,9.796163559E0,9.307219982E-1
7.687934375E0,5.121101737E-1,9.824884415E0,9.905482531E-1
7.692898437E0,4.857930839E-1,9.863162994E0,1.040797710E0
7.697860937E0,3.637558520E-1,9.841633797E0,1.057547569E0
7.702825000E0,3.757268786E-1,9.848807335E0,1.069509029E0
7.707787500E0,3.350445926E-1,9.863162994E0,1.038403511E0
7.712751562E0,2.919777036E-1,9.848807335E0,1.138902545E0
7.717714062E0,2.393339872E-1,9.870346069E0,9.785868526E-1
7.722678125E0,1.914786696E-1,9.922988892E0,1.009692311E0
7.727640625E0,1.986517012E-1,9.903844833E0,9.020106792E-1
7.732603125E0,1.292581707E-1,9.858384132E0,9.283373356E-1
7.737567187E0,1.795076579E-1,9.851201057E0,8.852608800E-1
7.742529687E0,2.297571748E-1,9.867951393E0,8.948376179E-1
7.747492187E0,2.465070039E-1,9.860768318E0,8.804724813E-1
7.752456250E0,1.962575018E-1,9.958883286E0,8.900492787E-1
7.757418750E0,1.412291676E-1,9.901451111E0,8.374055624E-1
7.762382812E0,2.058342993E-1,9.918201447E0,8.278383017E-1
7.767345312E0,1.651520431E-1,9.932557106E0,7.823676467E-1
7.772309375E0,1.436233670E-1,9.989988327E0,7.488679886E-1
7.777271875E0,1.795076579E-1,9.978017807E0,7.967232466E-1
7.782235937E0,1.627578288E-1,9.963662148E0,8.589437604E-1
7.787198437E0,6.466259807E-2,1.001630592E1,8.709052205E-1
7.792160937E0,8.141243458E-2,9.985199928E0,8.852608800E-1
7.797125000E0,7.184520364E-2,9.894268990E0,8.206557035E-1
7.802087500E0,8.380663395E-2,9.930162430E0,7.847618461E-1
7.807051562E0,1.388349682E-1,9.887095451E0,7.177625299E-1
7.812014062E0,1.723346412E-1,9.870346069E0,6.675130129E-1
7.816978125E0,1.101237014E-1,9.851201057E0,6.196576953E-1
7.821940625E0,1.627578288E-1,9.738740921E0,6.411958933E-1
7.826903125E0,9.576806426E-2,9.796163559E0,6.388017535E-1
7.831867187E0,1.507963985E-1,9.757884979E0,7.105894685E-1
7.836829687E0,1.412291676E-1,9.788990021E0,6.938396692E-1
7.841792187E0,1.531905979E-1,9.772240639E0,6.627342105E-1
7.846756250E0,1.723346412E-1,9.757884979E0,6.603399515E-1
7.851718750E0,1.268735379E-1,9.798557281E0,7.058010697E-1
7.856682812E0,1.795076579E-1,9.788990021E0,5.694081783E-1
7.861645312E0,1.962575018E-1,9.808135033E0,6.364075541E-1
7.866609375E0,1.460079998E-1,9.824884415E0,7.297335267E-1
7.871571875E0,8.620083332E-2,9.877518654E0,7.201567292E-1
7.876534375E0,2.451662440E-3,9.834450722E0,7.225509286E-1
7.881498437E0,-9.086474776E-2,9.822490692E0,7.775887847E-1
7.886460937E0,-8.608591557E-2,9.832057953E0,7.464833260E-1
7.891425000E0,-2.625960298E-2,9.911018372E0,7.775887847E-1
7.896387500E0,-3.104800731E-2,9.872738838E0,7.345123291E-1
7.901351562E0,1.680729724E-2,9.894268990E0,8.780878186E-1
7.906314062E0,3.595133126E-2,9.915806770E0,8.374055624E-1
7.911278125E0,1.005468965E-1,9.925383568E0,8.732994199E-1
7.916240625E0,1.244793311E-1,9.832057953E0,8.924434781E-1
7.921203125E0,1.412291676E-1,9.836845398E0,9.044048786E-1
7.926167187E0,1.412291676E-1,9.765057564E0,8.613380194E-1
7.931129687E0,2.297571748E-1,9.805740356E0,8.421939611E-1
7.936093750E0,2.177957445E-1,9.793779373E0,8.685110211E-1
7.941056250E0,2.967565060E-1,9.767452240E0,8.158673048E-1
7.946018750E0,2.752278447E-1,9.841633797E0,7.560505867E-1
7.950982812E0,2.680452466E-1,9.772240639E0,7.153682709E-1
7.955945312E0,2.776220441E-1,9.781807899E0,7.369065285E-1
7.960909375E0,3.350445926E-1,9.822490692E0,7.967232466E-1
7.965871875E0,3.087275028E-1,9.791384697E0,8.134731650E-1
7.970834375E0,2.728336453E-1,9.803345680E0,8.302229643E-1
7.975798437E0,2.680452466E-1,9.781807899E0,8.445882201E-1
7.980760937E0,2.584780157E-1,9.788990021E0,9.618370533E-1
7.985725000E0,2.225841433E-1,9.844018936E0,1.016865373E0
7.990687500E0,2.177957445E-1,9.860768318E0,1.064720750E0
7.995651562E0,1.244793311E-1,9.899056435E0,1.059941769E0
8.000614062E0,1.914786696E-1,9.956489563E0,9.857599139E-1
8.005578125E0,1.412291676E-1,9.906239510E0,9.618370533E-1
8.010540625E0,1.507963985E-1,9.987594604E0,9.115875363E-1
8.015503125E0,6.705679744E-2,9.978017807E0,8.709052205E-1
8.020467187E0,-7.411490381E-2,1.001870060E1,8.039059043E-1
8.025429687E0,-3.822103515E-2,1.001630592E1,7.058010697E-1
8.030393750E0,-3.104800731E-2,9.999555588E0,6.411958933E-1
8.035356250E0,1.202846877E-2,9.927767754E0,5.598409176E-1
8.040320312E0,-4.721365869E-3,9.906239510E0,5.598409176E-1
8.045282812E0,2.451662440E-3,9.918201447E0,5.885522366E-1
8.050245312E0,-5.497087166E-2,9.987594604E0,5.454853773E-1
8.055209375E0,-3.344221041E-2,9.922988892E0,6.986184716E-1
8.060171875E0,6.227797270E-2,9.903844833E0,6.603399515E-1
8.065134375E0,9.576806426E-2,9.805740356E0,6.340133548E-1
8.070098437E0,1.244793311E-1,9.836845398E0,6.364075541E-1
8.075062500E0,1.986517012E-1,9.832057953E0,5.263413191E-1
8.080025000E0,1.819018722E-1,9.774634361E0,4.593419433E-1
8.084987500E0,2.608722150E-1,9.774634361E0,3.923426270E-1
8.089951562E0,3.446213901E-1,9.762663841E0,2.822668254E-1
8.094914062E0,3.996497095E-1,9.714808464E0,2.846610248E-1
8.099876562E0,3.996497095E-1,9.693280220E0,4.090924561E-1
8.104840625E0,4.905815125E-1,9.745914459E0,6.220518947E-1
8.109803125E0,5.503982306E-1,9.724386215E0,7.871560454E-1
8.114767187E0,5.527924299E-1,9.743529320E0,9.474717975E-1
8.119731250E0,5.647538304E-1,9.729164124E0,1.079076290E0
8.124693750E0,5.767248273E-1,9.700452805E0,1.103008628E0
8.129656250E0,5.049371123E-1,9.743529320E0,1.196325064E0
8.134620312E0,4.403319955E-1,9.719596863E0,1.186757922E0
8.139582812E0,3.709384501E-1,9.729164124E0,1.124547005E0
8.144545312E0,3.159005344E-1,9.724386215E0,1.136508465E0
8.149507812E0,2.058342993E-1,9.736346245E0,1.091047287E0
8.154471875E0,1.723346412E-1,9.781807899E0,9.953366518E-1
8.159435937E0,2.877830528E-2,9.836845398E0,1.024047971E0
8.164398437E0,-7.890331000E-2,9.805740356E0,1.021653771E0
8.169360937E0,-1.889695525E-1,9.762663841E0,9.666158557E-1
8.174325000E0,-1.794023216E-1,9.855990410E0,8.278383017E-1
8.179289062E0,-9.086474776E-2,9.834450722E0,7.488679886E-1
8.184251562E0,-3.822103515E-2,9.812912941E0,5.239470601E-1
8.189214062E0,2.159569971E-2,9.824884415E0,5.287354589E-1
8.194178125E0,4.552813992E-2,9.836845398E0,5.670139790E-1
8.199140625E0,6.945100427E-2,9.841633797E0,5.478699207E-1
8.204104687E0,2.082285136E-1,9.762663841E0,5.191587210E-1
8.209067187E0,2.249783427E-1,9.755491257E0,4.760918021E-1
8.214031250E0,2.082285136E-1,9.693280220E0,5.765908360E-1
8.218993750E0,2.297571748E-1,9.738740921E0,7.201567292E-1
8.223956250E0,3.254773617E-1,9.721991539E0,7.488679886E-1
8.228918750E0,2.776220441E-1,9.757884979E0,7.129837275E-1
8.233882812E0,3.350445926E-1,9.772240639E0,7.153682709E-1
8.238845312E0,3.398329914E-1,9.786596298E0,7.393007874E-1
8.243809375E0,3.111217320E-1,9.755491257E0,7.345123291E-1
8.248771875E0,2.704394460E-1,9.788990021E0,7.177625299E-1
8.253735937E0,1.795076579E-1,9.808135033E0,8.063001037E-1
8.258698437E0,1.484021842E-1,9.836845398E0,8.230499029E-1
8.263662500E0,1.699404269E-1,9.841633797E0,8.661168218E-1
8.268625000E0,1.771230400E-1,9.834450722E0,8.661168218E-1
8.273589062E0,1.101237014E-1,9.877518654E0,1.064720750E0
8.278551562E0,6.466259807E-2,9.944517136E0,1.110191226E0
8.283514062E0,4.791276529E-2,9.934949875E0,1.069509029E0
8.288476562E0,9.338344634E-2,9.956489563E0,1.016865373E0
8.293440625E0,1.244793311E-1,9.922988892E0,9.977213144E-1
8.298403125E0,6.466259807E-2,9.966055870E0,9.163663387E-1
8.303367187E0,3.834553435E-2,9.958883286E0,8.445882201E-1
8.308329687E0,1.005468965E-1,9.966055870E0,8.254441619E-1
8.313293750E0,7.663360238E-2,9.937344551E0,6.746956110E-1
8.318257812E0,-1.669237576E-2,9.927767754E0,6.411958933E-1
8.323220312E0,2.638410218E-2,9.896661758E0,5.813696384E-1
8.328182812E0,2.638410218E-2,9.860768318E0,5.718024373E-1
8.333146875E0,1.202846877E-2,9.884700775E0,5.861580372E-1
8.338107812E0,6.945100427E-2,9.796163559E0,5.239470601E-1
8.343071875E0,1.388349682E-1,9.839240074E0,5.215529203E-1
8.348035937E0,9.815269709E-2,9.820096016E0,5.263413191E-1
8.352998437E0,1.579789966E-1,9.851201057E0,5.263413191E-1
8.357960937E0,1.484021842E-1,9.765057564E0,6.244460940E-1
8.362923437E0,1.795076579E-1,9.762663841E0,7.560505867E-1
8.367887500E0,2.608722150E-1,9.729164124E0,7.847618461E-1
8.372850000E0,2.441223711E-1,9.839240074E0,8.876550794E-1
8.377814062E0,1.340465695E-1,9.781807899E0,9.091932774E-1
8.382776562E0,1.675462276E-1,9.793779373E0,9.379045963E-1
8.387740625E0,2.201899439E-1,9.736346245E0,9.522601962E-1
8.392703125E0,2.728336453E-1,9.786596298E0,8.709052205E-1
8.397665625E0,3.541886210E-1,9.743529320E0,8.732994199E-1
8.402629687E0,3.350445926E-1,9.729164124E0,8.397997618E-1
8.407592187E0,3.517944217E-1,9.712413788E0,8.637226820E-1
8.412556250E0,3.159005344E-1,9.681308746E0,8.254441619E-1
8.417518750E0,2.991507351E-1,9.738740921E0,8.613380194E-1
8.422482812E0,3.302561939E-1,9.769846916E0,7.943387032E-1
8.427445312E0,3.374387920E-1,9.724386215E0,7.680120468E-1
8.432407812E0,2.584780157E-1,9.736346245E0,7.081953287E-1
8.437371875E0,1.603731960E-1,9.788990021E0,6.053020358E-1
8.442334375E0,1.579789966E-1,9.827268600E0,6.723014116E-1
8.447298437E0,6.466259807E-2,9.839240074E0,5.933406353E-1
8.452260937E0,-5.736507475E-2,9.853595734E0,6.220518947E-1
8.457225000E0,9.634267539E-3,9.920595169E0,5.406969786E-1
8.462187500E0,2.877830528E-2,9.989988327E0,6.244460940E-1
8.467150000E0,-1.190397050E-2,9.970844269E0,5.957348347E-1
8.472114062E0,-8.129751682E-2,9.944517136E0,5.933406353E-1
8.477076562E0,7.240065839E-3,9.958883286E0,7.034068704E-1
8.482040625E0,-2.336740959E-3,9.930162430E0,7.919444442E-1
8.487003125E0,1.196909323E-1,9.932557106E0,8.063001037E-1
8.491967187E0,1.196909323E-1,9.906239510E0,9.881540537E-1
8.496929687E0,1.651520431E-1,9.901451111E0,9.594427943E-1
8.501892187E0,2.441223711E-1,9.853595734E0,9.211547375E-1
8.506856250E0,2.919777036E-1,9.887095451E0,9.044048786E-1
8.511818750E0,2.393339872E-1,9.822490692E0,8.613380194E-1
8.516782812E0,3.350445926E-1,9.911018372E0,8.637226820E-1
8.521745312E0,2.919777036E-1,9.829663277E0,8.063001037E-1
8.526709375E0,2.369397730E-1,9.882307053E0,7.823676467E-1
8.531671875E0,2.273725420E-1,9.889489174E0,8.278383017E-1
8.536634375E0,2.106227130E-1,9.908634186E0,7.799734473E-1
8.541598437E0,1.603731960E-1,9.930162430E0,8.732994199E-1
8.546560937E0,1.292581707E-1,9.980412483E0,7.919444442E-1
8.551525000E0,1.747288406E-1,9.920595169E0,8.637226820E-1
8.556487500E0,1.244793311E-1,9.980412483E0,8.134731650E-1
8.561451562E0,5.748957023E-2,1.000195026E1,9.020106792E-1
8.566415625E0,7.663360238E-2,1.008330441E1,7.799734473E-1
8.571376562E0,-1.669237576E-2,1.017662144E1,7.225509286E-1
8.576340625E0,-5.497087166E-2,1.015030479E1,7.775887847E-1
8.581303125E0,-1.459026486E-1,1.015987110E1,6.818686724E-1
8.586267187E0,-1.459026486E-1,1.019337082E1,6.818686724E-1
8.591229687E0,-1.052203774E-1,1.015030479E1,6.340133548E-1
8.596193750E0,-1.429817267E-2,1.020294857E1,5.598409176E-1
8.601156250E0,9.634267539E-3,1.022209167E1,5.191587210E-1
8.606118750E0,2.638410218E-2,1.015987110E1,5.789849758E-1
8.611082812E0,3.595133126E-2,1.018140984E1,6.220518947E-1
8.616045312E0,7.184520364E-2,1.016944790E1,7.058010697E-1
8.621009375E0,1.460079998E-1,1.016226578E1,8.278383017E-1
8.625971875E0,1.292581707E-1,1.011441040E1,8.278383017E-1
8.630935937E0,1.747288406E-1,9.992383003E0,9.833656549E-1
8.635898437E0,2.847950757E-1,9.922988892E0,1.033615232E0
8.640860937E0,3.470060229E-1,9.913412094E0,1.167613864E0
8.645825000E0,4.522934258E-1,9.889489174E0,1.227440238E0
8.650787500E0,5.432252288E-1,9.798557281E0,1.272901297E0
8.655751562E0,5.073313117E-1,9.767452240E0,1.280074358E0
8.660714062E0,6.173976064E-1,9.712413788E0,1.158046603E0
8.665676562E0,6.269743443E-1,9.690885544E0,1.222651720E0
8.670640625E0,7.298580408E-1,9.707635880E0,1.112575889E0
8.675603125E0,7.298580408E-1,9.650202751E0,1.002509713E0
8.680567187E0,8.183956146E-1,9.547310829E0,8.685110211E-1
8.685529687E0,8.423280716E-1,9.552098274E0,8.852608800E-1
8.690493750E0,7.657518983E-1,9.561666489E0,7.919444442E-1
8.695456250E0,7.202907801E-1,9.556886673E0,6.818686724E-1
8.700418750E0,6.102245450E-1,9.549704552E0,6.627342105E-1
8.705382812E0,5.312542319E-1,9.561666489E0,6.196576953E-1
8.710346875E0,3.852941096E-1,9.666953087E0,5.622351766E-1
8.715309375E0,2.632568479E-1,9.657385826E0,6.842628121E-1
8.720273437E0,9.098923951E-2,9.745914459E0,5.215529203E-1
8.725235937E0,6.227797270E-2,9.743529320E0,4.736976027E-1
8.730198437E0,-1.267586201E-1,9.738740921E0,1.889503896E-1
8.735160937E0,-1.267586201E-1,9.733952522E0,1.482776999E-1
8.740125000E0,-1.554698795E-1,9.800951958E0,7.170155644E-2
8.745087500E0,-1.650466919E-1,9.793779373E0,6.213432178E-2
8.750051562E0,-9.086474776E-2,9.798557281E0,6.691315025E-2
8.755014062E0,-1.482968628E-1,9.788990021E0,1.099896207E-1
8.759978125E0,-1.291528195E-1,9.793779373E0,1.722005606E-1
8.764940625E0,-1.147971824E-1,9.784202576E0,2.774879634E-1
8.769903125E0,-5.258624628E-2,9.800951958E0,3.396989107E-1
8.774867187E0,-3.344221041E-2,9.827268600E0,5.478699207E-1
8.779831250E0,8.859504014E-2,9.812912941E0,7.321181893E-1
8.784793750E0,1.747288406E-1,9.779414177E0,8.685110211E-1
8.789756250E0,3.087275028E-1,9.755491257E0,9.283373356E-1
8.794720312E0,4.283609986E-1,9.731558800E0,9.833656549E-1
8.799682812E0,4.977545440E-1,9.736346245E0,1.009692311E0
8.804645312E0,5.767248273E-1,9.738740921E0,1.064720750E0
8.809609375E0,5.719364882E-1,9.848807335E0,1.045586228E0
8.814571875E0,6.150033474E-1,9.827268600E0,9.737984538E-1
8.819535937E0,5.671480894E-1,9.733952522E0,9.259431362E-1
8.824498437E0,5.145043731E-1,9.707635880E0,8.326171637E-1
8.829462500E0,4.140053689E-1,9.753096581E0,7.728003860E-1
8.834425000E0,3.278715611E-1,9.755491257E0,7.345123291E-1
8.839387500E0,2.680452466E-1,9.793779373E0,7.704062462E-1
8.844351562E0,2.656510174E-1,9.784202576E0,8.374055624E-1
8.849314062E0,1.292581707E-1,9.853595734E0,7.249451280E-1
8.854278125E0,6.466259807E-2,9.920595169E0,6.388017535E-1
8.859240625E0,4.073973373E-2,9.877518654E0,5.789849758E-1
8.864204687E0,-1.908657700E-2,9.889489174E0,4.162654579E-1
8.869167187E0,-8.847054094E-2,9.939739227E0,2.918435931E-1
8.874129687E0,-1.100087836E-1,9.836845398E0,2.870551944E-1
8.879093750E0,-1.171913818E-1,9.872738838E0,3.061992526E-1
8.884056250E0,-3.822103515E-2,9.887095451E0,3.516603410E-1
8.889020312E0,-2.147120051E-2,9.932557106E0,4.258422852E-1
8.893982812E0,1.920149848E-2,9.899056435E0,5.933406353E-1
8.898945312E0,4.552813992E-2,9.894268990E0,6.675130129E-1
8.903909375E0,1.507963985E-1,9.894268990E0,7.393007874E-1
8.908871875E0,2.369397730E-1,9.887095451E0,8.421939611E-1
8.913835937E0,2.824008763E-1,9.841633797E0,9.474717975E-1
8.918798437E0,2.680452466E-1,9.844018936E0,9.690100551E-1
8.923762500E0,3.015449345E-1,9.853595734E0,1.007298112E0
8.928725000E0,3.422271907E-1,9.829663277E0,1.031220913E0
8.933687500E0,3.565828204E-1,9.839240074E0,9.714042544E-1
8.938651562E0,3.470060229E-1,9.853595734E0,9.857599139E-1
8.943614062E0,4.714374840E-1,9.820096016E0,9.163663387E-1
8.948578125E0,4.235821664E-1,9.855990410E0,8.637226820E-1
8.953540625E0,4.283609986E-1,9.846412659E0,9.211547375E-1
8.958503125E0,3.972555101E-1,9.860768318E0,8.900492787E-1
8.963467187E0,4.116111398E-1,9.832057953E0,8.445882201E-1
8.968429687E0,3.494002223E-1,9.772240639E0,7.177625299E-1
8.973393750E0,3.087275028E-1,9.820096016E0,7.560505867E-1
8.978356250E0,3.733326793E-1,9.786596298E0,6.029078960E-1
8.983320312E0,2.584780157E-1,9.772240639E0,4.952358305E-1
8.988282812E0,2.249783427E-1,9.769846916E0,4.090924561E-1
8.993245312E0,2.201899439E-1,9.781807899E0,4.425921440E-1
8.998209375E0,1.507963985E-1,9.877518654E0,4.114866555E-1
9.003171875E0,9.338344634E-2,9.860768318E0,4.880532324E-1
9.008135937E0,6.705679744E-2,9.908634186E0,5.359085202E-1
9.013098437E0,-6.694187969E-2,9.930162430E0,6.675130129E-1
9.018062500E0,-4.300943762E-2,9.884700775E0,7.081953287E-1
9.023025000E0,-1.076145768E-1,9.956489563E0,7.034068704E-1
9.027987500E0,-9.325893968E-2,9.901451111E0,7.153682709E-1
9.032951562E0,-8.129751682E-2,9.920595169E0,6.292344928E-1
9.037914062E0,-1.028357521E-1,9.889489174E0,7.321181893E-1
9.042878125E0,-1.100087836E-1,9.875133514E0,6.603399515E-1
9.047840625E0,-8.129751682E-2,9.870346069E0,6.053020358E-1
9.052804687E0,-1.908657700E-2,9.896661758E0,5.263413191E-1
9.057767187E0,-2.865380608E-2,9.836845398E0,5.311201215E-1
9.062729687E0,-6.694187969E-2,9.872738838E0,6.340133548E-1
9.067693750E0,7.240065839E-3,9.867951393E0,5.718024373E-1
9.072656250E0,2.159569971E-2,9.844018936E0,5.861580372E-1
9.077620312E0,7.423940301E-2,9.824884415E0,5.335143209E-1
9.082582812E0,1.412291676E-1,9.760279655E0,5.311201215E-1
9.087546875E0,1.364407688E-1,9.777029037E0,4.330153167E-1
9.092509375E0,2.058342993E-1,9.848807335E0,4.617361724E-1
9.097471875E0,2.417281866E-1,9.796163559E0,4.330153167E-1
9.102435937E0,1.986517012E-1,9.762663841E0,4.449863136E-1
9.107398437E0,2.106227130E-1,9.772240639E0,5.359085202E-1
9.112362500E0,2.608722150E-1,9.784202576E0,5.598409176E-1
9.117325000E0,1.795076579E-1,9.757884979E0,6.316191554E-1
9.122289062E0,1.842960715E-1,9.755491257E0,6.531573534E-1
9.127251562E0,1.531905979E-1,9.834450722E0,7.273392677E-1
9.132214062E0,1.938728839E-1,9.834450722E0,7.704062462E-1
9.137178125E0,1.388349682E-1,9.798557281E0,6.794840097E-1
9.142140625E0,1.627578288E-1,9.753096581E0,5.048030615E-1
9.147104687E0,2.249783427E-1,9.798557281E0,5.789849758E-1
9.152067187E0,2.584780157E-1,9.786596298E0,5.287354589E-1
9.157031250E0,1.699404269E-1,9.841633797E0,5.239470601E-1
9.161993750E0,1.795076579E-1,9.824884415E0,7.440891862E-1
9.166956250E0,1.053352952E-1,9.932557106E0,7.704062462E-1
9.171920312E0,6.227797270E-2,9.922988892E0,8.278383017E-1
9.176882812E0,5.270116776E-2,9.903844833E0,8.613380194E-1
9.181846875E0,2.877830528E-2,9.918201447E0,8.709052205E-1
9.186809375E0,1.680729724E-2,9.915806770E0,8.278383017E-1
9.191773437E0,-2.147120051E-2,9.992383003E0,8.302229643E-1
9.196735937E0,8.380663395E-2,9.973237991E0,8.086943030E-1
9.201698437E0,1.842960715E-1,9.989988327E0,7.680120468E-1
9.206662500E0,2.489012182E-1,9.889489174E0,6.220518947E-1
9.211625000E0,2.800066769E-1,9.846412659E0,5.550525784E-1
9.216589062E0,3.589770198E-1,9.853595734E0,5.909464359E-1
9.221551562E0,3.302561939E-1,9.808135033E0,5.550525784E-1
9.226515625E0,2.680452466E-1,9.836845398E0,6.890512705E-1
9.231478125E0,2.465070039E-1,9.793779373E0,7.919444442E-1
9.236440625E0,1.675462276E-1,9.824884415E0,7.656177878E-1
9.241404687E0,1.412291676E-1,9.858384132E0,8.397997618E-1
9.246367187E0,1.699404269E-1,9.860768318E0,7.871560454E-1
9.251331250E0,1.795076579E-1,9.958883286E0,6.005136967E-1
9.256293750E0,5.030696467E-2,9.851201057E0,4.569477439E-1
9.261256250E0,9.576806426E-2,9.844018936E0,5.024088621E-1
9.266220312E0,1.101237014E-1,9.896661758E0,4.521593750E-1
9.271182812E0,1.077295020E-1,9.918201447E0,6.005136967E-1
9.276146875E0,5.988377333E-2,9.844018936E0,5.909464359E-1
9.281109375E0,1.292581707E-1,9.820096016E0,6.029078960E-1
9.286073437E0,2.082285136E-1,9.836845398E0,6.100904346E-1
9.291035937E0,1.412291676E-1,9.870346069E0,6.340133548E-1
9.295998437E0,2.130073458E-1,9.788990021E0,6.938396692E-1
9.300962500E0,1.771230400E-1,9.733952522E0,7.919444442E-1
9.305925000E0,2.106227130E-1,9.779414177E0,7.321181893E-1
9.310889062E0,1.842960715E-1,9.836845398E0,7.775887847E-1
9.315851562E0,2.393339872E-1,9.812912941E0,7.488679886E-1
9.320815625E0,2.632568479E-1,9.765057564E0,6.483689547E-1
9.325778125E0,2.728336453E-1,9.772240639E0,7.440891862E-1
9.330740625E0,1.747288406E-1,9.836845398E0,7.177625299E-1
9.335704687E0,1.699404269E-1,9.798557281E0,8.541554213E-1
9.340667187E0,1.675462276E-1,9.808135033E0,7.943387032E-1
9.345631250E0,1.244793311E-1,9.822490692E0,6.962338090E-1
9.350593750E0,4.552813992E-2,9.822490692E0,6.483689547E-1
9.355556250E0,4.845864139E-3,9.913412094E0,6.220518947E-1
9.360520312E0,-2.336740959E-3,9.867951393E0,5.813696384E-1
9.365482812E0,2.159569971E-2,9.934949875E0,5.287354589E-1
9.370446875E0,1.441309415E-2,9.858384132E0,4.856590331E-1
9.375409375E0,1.680729724E-2,9.894268990E0,5.718024373E-1
9.380373437E0,5.509537086E-2,9.884700775E0,6.220518947E-1
9.385335937E0,1.340465695E-1,9.927767754E0,6.531573534E-1
9.390298437E0,1.053352952E-1,9.867951393E0,6.794840097E-1
9.395260937E0,1.675462276E-1,9.829663277E0,7.584447861E-1
9.400225000E0,2.704394460E-1,9.820096016E0,7.297335267E-1
9.405187500E0,2.847950757E-1,9.865556717E0,7.680120468E-1
9.410151562E0,2.895835042E-1,9.803345680E0,7.536563873E-1
9.415114062E0,2.728336453E-1,9.781807899E0,7.440891862E-1
9.420078125E0,2.728336453E-1,9.755491257E0,6.866570711E-1
9.425040625E0,2.536896169E-1,9.832057953E0,6.507631540E-1
9.430004687E0,3.422271907E-1,9.851201057E0,6.053020358E-1
9.434967187E0,3.135063350E-1,9.827268600E0,4.425921440E-1
9.439931250E0,3.111217320E-1,9.777029037E0,4.378037155E-1
9.444893750E0,2.895835042E-1,9.800951958E0,4.210538864E-1
9.449857812E0,2.321513742E-1,9.815307617E0,4.186596870E-1
9.454820312E0,2.249783427E-1,9.820096016E0,4.641303718E-1
9.459782812E0,1.962575018E-1,9.836845398E0,5.789849758E-1
9.464745312E0,1.340465695E-1,9.855990410E0,5.741965771E-1
9.469709375E0,1.412291676E-1,9.889489174E0,6.292344928E-1
9.474671875E0,5.270116776E-2,9.867951393E0,7.560505867E-1
9.479635937E0,2.451662440E-3,9.903844833E0,7.799734473E-1
9.484598437E0,-1.669237576E-2,9.934949875E0,8.565496206E-1
9.489560937E0,3.834553435E-2,9.887095451E0,8.039059043E-1
9.494525000E0,8.141243458E-2,9.942132950E0,8.039059043E-1
9.499489062E0,1.053352952E-1,9.875133514E0,7.249451280E-1
9.504451562E0,5.988377333E-2,9.882307053E0,6.579458117E-1
9.509414062E0,4.552813992E-2,9.918201447E0,7.656177878E-1
9.514378125E0,9.815269709E-2,9.860768318E0,6.507631540E-1
9.519340625E0,-4.721365869E-3,9.841633797E0,5.670139790E-1
9.524304687E0,6.945100427E-2,9.827268600E0,5.550525784E-1
9.529267187E0,3.834553435E-2,9.832057953E0,4.569477439E-1
9.534229687E0,5.988377333E-2,9.812912941E0,5.191587210E-1
9.539193750E0,1.053352952E-1,9.760279655E0,4.138808548E-1
9.544156250E0,4.073973373E-2,9.820096016E0,3.899484277E-1
9.549120312E0,-5.975927413E-2,9.793779373E0,3.181606829E-1
9.554082812E0,-1.429817267E-2,9.769846916E0,3.564487696E-1
9.559046875E0,-2.865380608E-2,9.745914459E0,4.162654579E-1
9.564009375E0,3.355713189E-2,9.839240074E0,4.497651756E-1
9.568973437E0,-2.625960298E-2,9.772240639E0,4.689091742E-1
9.573935937E0,-2.625960298E-2,9.808135033E0,4.378037155E-1
9.578898437E0,-7.890331000E-2,9.822490692E0,5.622351766E-1
9.583862500E0,-7.890331000E-2,9.805740356E0,5.718024373E-1
9.588826562E0,-1.171913818E-1,9.808135033E0,5.694081783E-1
9.593789062E0,-8.129751682E-2,9.832057953E0,7.321181893E-1
9.598753125E0,-3.344221041E-2,9.834450722E0,7.608389854E-1
9.603715625E0,3.834553435E-2,9.788990021E0,7.034068704E-1
9.608678125E0,6.945100427E-2,9.755491257E0,7.201567292E-1
9.613640625E0,1.507963985E-1,9.721991539E0,7.034068704E-1
9.618604687E0,2.512954175E-1,9.753096581E0,6.914454103E-1
9.623567187E0,2.824008763E-1,9.698058128E0,7.081953287E-1
9.628531250E0,3.470060229E-1,9.698058128E0,7.010126710E-1
9.633493750E0,3.637558520E-1,9.755491257E0,7.584447861E-1
9.638457812E0,3.541886210E-1,9.777029037E0,7.464833260E-1
9.643420312E0,3.685442507E-1,9.729164124E0,6.986184716E-1
9.648382812E0,4.211879671E-1,9.820096016E0,7.369065285E-1
9.653346875E0,4.810046852E-1,9.788990021E0,7.584447861E-1
9.658310937E0,4.307551980E-1,9.791384697E0,7.201567292E-1
9.663271875E0,5.264754295E-1,9.896661758E0,7.799734473E-1
9.668235937E0,4.427261949E-1,9.949306488E0,7.416949272E-1
9.673198437E0,3.996497095E-1,1.004263210E1,8.206557035E-1
9.678162500E0,3.541886210E-1,1.001870060E1,7.943387032E-1
9.683126562E0,2.584780157E-1,1.004980564E1,8.469727635E-1
9.688089062E0,1.747288406E-1,1.006655502E1,7.297335267E-1
9.693053125E0,8.859504014E-2,1.007373714E1,7.512621880E-1
9.698015625E0,6.466259807E-2,1.016705418E1,7.775887847E-1
9.702978125E0,3.355713189E-2,1.018859291E1,8.182615638E-1
9.707942187E0,-2.386540174E-2,1.022209167E1,7.416949272E-1
9.712904687E0,-7.890331000E-2,1.025559139E1,7.608389854E-1
9.717867187E0,-6.933607906E-2,1.023884201E1,8.445882201E-1
9.722831250E0,-1.626524776E-1,1.023644733E1,8.254441619E-1
9.727795312E0,-1.770081222E-1,1.020534134E1,8.804724813E-1
9.732756250E0,-1.794023216E-1,1.023884201E1,8.804724813E-1
9.737720312E0,-2.009405643E-1,1.016466045E1,9.020106792E-1
9.742682812E0,-1.937579513E-1,1.021730328E1,8.110885024E-1
9.747646875E0,-1.985463500E-1,1.018619823E1,6.675130129E-1
9.752609375E0,-1.985463500E-1,1.013594818E1,5.406969786E-1
9.757573437E0,-1.052203774E-1,1.012876606E1,4.282364845E-1
9.762537500E0,-1.435084492E-1,1.013355446E1,2.631323636E-1
9.767500000E0,-4.061523825E-2,1.013594818E1,1.913446039E-1
9.772462500E0,-7.411490381E-2,1.005459404E1,2.368056923E-1
9.777426562E0,-5.497087166E-2,1.005938148E1,2.152674496E-1
9.782389062E0,-4.061523825E-2,1.004263210E1,2.200558633E-1
9.787353125E0,5.748957023E-2,1.006416130E1,2.750937939E-1
9.792314062E0,3.595133126E-2,1.001391125E1,3.660160005E-1
9.797279687E0,8.620083332E-2,1.007373714E1,4.019098580E-1
9.802240625E0,6.466259807E-2,1.003305531E1,4.497651756E-1
9.807204687E0,1.029410958E-1,1.003305531E1,4.784860015E-1
9.812167187E0,1.316523552E-1,1.004741096E1,5.502641797E-1
9.817131250E0,1.005468965E-1,1.004980564E1,4.904474318E-1
9.822093750E0,1.795076579E-1,1.003305531E1,5.598409176E-1
9.827056250E0,1.484021842E-1,1.007134342E1,6.699072123E-1
9.832020312E0,2.177957445E-1,1.006176662E1,7.632332444E-1
9.836982812E0,2.010459006E-1,1.008809376E1,8.134731650E-1
9.841946875E0,1.292581707E-1,1.004501629E1,7.799734473E-1
9.846909375E0,1.316523552E-1,1.006176662E1,8.517611623E-1
9.851871875E0,1.579789966E-1,1.012637234E1,9.618370533E-1
9.856835937E0,1.651520431E-1,1.018619823E1,9.953366518E-1
9.861798437E0,2.201899439E-1,1.013115978E1,9.857599139E-1
9.866762500E0,1.866902709E-1,1.021251583E1,9.881540537E-1
9.871725000E0,2.130073458E-1,1.019337082E1,9.642215967E-1
9.876689062E0,2.489012182E-1,1.017184258E1,9.714042544E-1
9.881651562E0,2.417281866E-1,1.026037025E1,8.900492787E-1
9.886614062E0,3.613712192E-1,1.018380356E1,8.804724813E-1
9.891578125E0,3.494002223E-1,1.026037025E1,8.828666210E-1
9.896540625E0,4.116111398E-1,1.025798607E1,9.331161380E-1
9.901504687E0,3.302561939E-1,1.033455276E1,9.115875363E-1
9.906467187E0,3.111217320E-1,1.027473545E1,1.026442170E0
9.911431250E0,2.225841433E-1,1.034412003E1,9.450871348E-1
9.916393750E0,1.842960715E-1,1.036805153E1,8.852608800E-1
9.921356250E0,1.388349682E-1,1.035609055E1,9.115875363E-1
9.926320312E0,9.098923951E-2,1.048051262E1,8.158673048E-1
9.931282812E0,7.240065839E-3,1.048051262E1,8.374055624E-1
9.936246875E0,-1.028357521E-1,1.049965668E1,8.661168218E-1
9.941209375E0,-2.057193965E-1,1.042547417E1,7.967232466E-1
9.946173437E0,-2.224692255E-1,1.051640606E1,7.345123291E-1
9.951135937E0,-1.554698795E-1,1.049726295E1,7.273392677E-1
9.956098437E0,-2.057193965E-1,1.049247360E1,6.770898700E-1
9.961062500E0,-2.081135809E-1,1.050444508E1,7.034068704E-1
9.966025000E0,-1.004415527E-1,1.036565781E1,7.536563873E-1
9.970989062E0,-7.172070444E-2,1.040633965E1,7.512621880E-1
9.975951562E0,8.620083332E-2,1.045180130E1,7.991175056E-1
9.980915625E0,1.268735379E-1,1.032019711E1,8.206557035E-1
9.985878125E0,1.962575018E-1,1.034173489E1,8.732994199E-1
9.990840625E0,2.776220441E-1,1.028190899E1,8.278383017E-1
9.995804687E0,3.111217320E-1,1.025080395E1,8.541554213E-1
1.000076719E1,3.948709071E-1,1.016466045E1,8.804724813E-1
1.000573125E1,4.020439088E-1,1.010723686E1,8.780878186E-1
1.001069375E1,4.546876252E-1,1.010723686E1,7.943387032E-1
1.001565781E1,4.379377961E-1,1.018619823E1,7.728003860E-1
1.002062031E1,5.073313117E-1,1.017662144E1,7.034068704E-1
1.002558281E1,5.168985724E-1,1.009288216E1,7.249451280E-1
1.003054688E1,4.642548561E-1,1.012637234E1,6.627342105E-1
1.003550938E1,5.145043731E-1,1.010005474E1,6.507631540E-1
1.004047344E1,4.259763658E-1,1.008330441E1,5.885522366E-1
1.004543594E1,3.661500514E-1,1.016944790E1,6.531573534E-1
1.005040000E1,2.919777036E-1,1.022687149E1,6.627342105E-1
1.005536250E1,1.866902709E-1,1.017423630E1,7.416949272E-1
1.006032500E1,1.460079998E-1,1.024601460E1,8.134731650E-1
1.006528906E1,9.098923951E-2,1.035130310E1,7.153682709E-1
1.007025156E1,1.053352952E-1,1.024601460E1,7.512621880E-1
1.007521406E1,1.484021842E-1,1.027234173E1,7.751946449E-1
1.008017812E1,5.748957023E-2,1.032976341E1,8.709052205E-1
1.008514219E1,3.116292879E-2,1.029626465E1,8.924434781E-1
1.009010469E1,4.791276529E-2,1.027234173E1,8.972222805E-1
1.009506719E1,1.101237014E-1,1.027473545E1,9.091932774E-1
1.010003125E1,1.268735379E-1,1.033215809E1,8.469727635E-1
1.010499375E1,6.466259807E-2,1.035130310E1,8.421939611E-1
1.010995781E1,8.620083332E-2,1.029626465E1,7.393007874E-1
1.011492031E1,7.184520364E-2,1.043026257E1,8.039059043E-1
1.011988281E1,2.877830528E-2,1.040394592E1,8.182615638E-1
1.012484688E1,4.791276529E-2,1.039436913E1,9.115875363E-1
1.012980938E1,6.466259807E-2,1.040155220E1,9.235489368E-1
1.013477344E1,4.552813992E-2,1.041590691E1,9.594427943E-1
1.013973594E1,4.073973373E-2,1.037761879E1,9.857599139E-1
1.014470000E1,8.141243458E-2,1.040155220E1,9.546543956E-1
1.014966250E1,5.509537086E-2,1.042308998E1,9.283373356E-1
1.015462500E1,1.340465695E-1,1.037523460E1,9.044048786E-1
1.015958906E1,1.005468965E-1,1.037044621E1,8.661168218E-1
1.016455156E1,1.316523552E-1,1.041111946E1,7.991175056E-1
1.016951562E1,5.988377333E-2,1.038001347E1,8.230499029E-1
1.017447812E1,8.141243458E-2,1.032736969E1,8.230499029E-1
1.017944219E1,1.316523552E-1,1.033934116E1,7.991175056E-1
1.018440469E1,9.815269709E-2,1.037044621E1,7.440891862E-1
1.018936719E1,1.149025261E-1,1.032019711E1,7.105894685E-1
1.019433125E1,1.364407688E-1,1.028190899E1,6.053020358E-1
1.019929375E1,1.651520431E-1,1.022209167E1,5.741965771E-1
1.020425781E1,1.436233670E-1,1.028669739E1,6.172634959E-1
1.020922031E1,1.723346412E-1,1.027951431E1,6.699072123E-1
1.021418281E1,2.058342993E-1,1.022687149E1,7.464833260E-1
1.021914688E1,2.489012182E-1,1.020773602E1,7.967232466E-1
1.022410938E1,3.254773617E-1,1.022926426E1,8.230499029E-1
