"Time (s)","Gyroscope x (rad/s)","Gyroscope y (rad/s)","Gyroscope z (rad/s)"
0.000000000E0,2.830575109E-1,-2.175378352E-1,-3.501304984E-1
4.962500000E-3,2.830575109E-1,-2.175378352E-1,-3.501304984E-1
9.925000000E-3,0.000000000E0,0.000000000E0,0.000000000E0
1.488906200E-2,7.330382941E-4,-2.356194425E-3,1.221730490E-4
1.985156200E-2,7.330382941E-4,-2.356194425E-3,1.221730490E-4
2.481562500E-2,3.787364578E-3,-1.740093343E-2,-3.385938704E-3
2.977812500E-2,3.787364578E-3,-1.740093343E-2,-3.385938704E-3
3.474062500E-2,1.087340154E-2,-4.284783453E-2,-8.953538723E-3
3.970468700E-2,1.087340154E-2,-4.284783453E-2,-8.953538723E-3
4.466718700E-2,6.586349010E-1,-2.405185938E0,-4.772602916E-1
4.963125000E-2,6.586349010E-1,-2.405185938E0,-4.772602916E-1
5.459375000E-2,6.994755864E-1,-2.432151318E0,-4.597895443E-1
5.955781200E-2,6.994755864E-1,-2.432151318E0,-4.597895443E-1
6.452031200E-2,7.995527983E-1,-2.672099113E0,-4.776616991E-1
6.948281200E-2,7.995527983E-1,-2.672099113E0,-4.776616991E-1
7.444687500E-2,8.573057055E-1,-2.780850649E0,-4.723908007E-1
7.940937500E-2,8.573057055E-1,-2.780850649E0,-4.723908007E-1
8.437343700E-2,8.133583069E-1,-2.677038431E0,-4.276929200E-1
8.933593700E-2,8.133583069E-1,-2.677038431E0,-4.276929200E-1
9.430000000E-2,7.799178362E-1,-2.642044544E0,-4.037120938E-1
9.926250000E-2,7.799178362E-1,-2.642044544E0,-4.037120938E-1
1.042265620E-1,7.753276229E-1,-2.646791697E0,-3.883706629E-1
1.091890620E-1,7.753276229E-1,-2.646791697E0,-3.883706629E-1
1.141531250E-1,7.348883152E-1,-2.461158514E0,-3.584033549E-1
1.191156250E-1,7.348883152E-1,-2.461158514E0,-3.584033549E-1
1.240781250E-1,6.098180413E-1,-2.130313873E0,-3.140894473E-1
1.290421870E-1,6.098180413E-1,-2.130313873E0,-3.140894473E-1
1.340046870E-1,5.133362412E-1,-1.896055937E0,-2.819579542E-1
1.389687500E-1,5.133362412E-1,-1.896055937E0,-2.819579542E-1
1.439312500E-1,4.538554251E-1,-1.672339559E0,-2.511354387E-1
1.488937500E-1,4.538554251E-1,-1.672339559E0,-2.511354387E-1
1.538578120E-1,4.055621624E-1,-1.555507183E0,-2.344675362E-1
1.588203120E-1,4.055621624E-1,-1.555507183E0,-2.344675362E-1
1.637843750E-1,3.667984009E-1,-1.506062031E0,-2.316226512E-1
1.687468750E-1,3.667984009E-1,-1.506062031E0,-2.316226512E-1
1.737109370E-1,3.388207555E-1,-1.468205810E0,-2.350783944E-1
1.786734370E-1,3.388207555E-1,-1.468205810E0,-2.350783944E-1
1.836359370E-1,3.176673651E-1,-1.414484620E0,-2.369284481E-1
1.886000000E-1,3.176673651E-1,-1.414484620E0,-2.369284481E-1
1.935625000E-1,3.018721342E-1,-1.337864637E0,-2.346595228E-1
1.985265620E-1,3.018721342E-1,-1.337864637E0,-2.346595228E-1
2.034890620E-1,2.967757881E-1,-1.303464293E0,-2.367539108E-1
2.084531250E-1,2.967757881E-1,-1.303464293E0,-2.367539108E-1
2.134156250E-1,2.845584750E-1,-1.237298846E0,-2.335948646E-1
2.183781250E-1,2.845584750E-1,-1.237298846E0,-2.335948646E-1
2.233421870E-1,2.586752474E-1,-1.181832194E0,-2.302263826E-1
2.283062500E-1,2.586752474E-1,-1.181832194E0,-2.302263826E-1
2.332687500E-1,2.308023423E-1,-1.090167522E0,-2.190388143E-1
2.382312500E-1,2.308023423E-1,-1.090167522E0,-2.190388143E-1
2.431953120E-1,2.079210728E-1,-9.878737926E-1,-2.055299729E-1
2.481578120E-1,2.079210728E-1,-9.878737926E-1,-2.055299729E-1
2.531203120E-1,1.880243123E-1,-8.937482238E-1,-1.922829300E-1
2.580843750E-1,1.880243123E-1,-8.937482238E-1,-1.922829300E-1
2.630468750E-1,1.699252576E-1,-8.384212852E-1,-1.844987571E-1
2.680109370E-1,1.699252576E-1,-8.384212852E-1,-1.844987571E-1
2.729734370E-1,1.541998386E-1,-7.646461725E-1,-1.705361158E-1
2.779375000E-1,1.541998386E-1,-7.646461725E-1,-1.705361158E-1
2.829000000E-1,1.402197480E-1,-6.984458566E-1,-1.549677849E-1
2.878625000E-1,1.402197480E-1,-6.984458566E-1,-1.549677849E-1
2.928265620E-1,1.296081543E-1,-6.416877508E-1,-1.393819898E-1
2.977890620E-1,1.296081543E-1,-6.416877508E-1,-1.393819898E-1
3.027531250E-1,1.248084977E-1,-5.880886912E-1,-1.254717261E-1
3.077156250E-1,1.248084977E-1,-5.880886912E-1,-1.254717261E-1
3.126781250E-1,1.267632693E-1,-5.587671399E-1,-1.157851443E-1
3.176421870E-1,1.267632693E-1,-5.587671399E-1,-1.157851443E-1
3.226046870E-1,1.577777565E-1,-5.897467732E-1,-1.127308160E-1
3.275687500E-1,1.577777565E-1,-5.897467732E-1,-1.127308160E-1
3.325312500E-1,2.005557865E-1,-6.499606371E-1,-1.137780100E-1
3.374953120E-1,2.005557865E-1,-6.499606371E-1,-1.137780100E-1
3.424578120E-1,2.335425019E-1,-6.997199655E-1,-1.139176413E-1
3.474203120E-1,2.335425019E-1,-6.997199655E-1,-1.139176413E-1
3.523843750E-1,2.406285405E-1,-7.049036026E-1,-1.105491519E-1
3.573468750E-1,2.406285405E-1,-7.049036026E-1,-1.105491519E-1
3.623109370E-1,2.378011048E-1,-7.193199992E-1,-1.129926145E-1
3.672734370E-1,2.378011048E-1,-7.193199992E-1,-1.129926145E-1
3.722375000E-1,2.254267186E-1,-7.179237604E-1,-1.226617396E-1
3.772000000E-1,2.254267186E-1,-7.179237604E-1,-1.226617396E-1
3.821625000E-1,2.061233819E-1,-7.164751291E-1,-1.401673853E-1
3.871265620E-1,2.061233819E-1,-7.164751291E-1,-1.401673853E-1
3.920890620E-1,1.843765825E-1,-7.228455544E-1,-1.599768847E-1
3.970531250E-1,1.843765825E-1,-7.228455544E-1,-1.599768847E-1
4.020156250E-1,1.713913381E-1,-7.484495640E-1,-1.849176288E-1
4.069796870E-1,1.713913381E-1,-7.484495640E-1,-1.849176288E-1
4.119421870E-1,1.575159580E-1,-7.232120633E-1,-1.898045540E-1
4.169046870E-1,1.575159580E-1,-7.232120633E-1,-1.898045540E-1
4.218687500E-1,1.397834122E-1,-6.782349348E-1,-1.766796857E-1
4.268312500E-1,1.397834122E-1,-6.782349348E-1,-1.766796857E-1
4.317953120E-1,1.251750141E-1,-6.133785248E-1,-1.496968865E-1
4.367593750E-1,1.251750141E-1,-6.133785248E-1,-1.496968865E-1
4.417218750E-1,1.154709831E-1,-5.888915658E-1,-1.320341527E-1
4.466843750E-1,1.154709831E-1,-5.888915658E-1,-1.320341527E-1
4.516468750E-1,1.129751652E-1,-5.523617864E-1,-1.149648353E-1
4.566109370E-1,1.129751652E-1,-5.523617864E-1,-1.149648353E-1
4.615734370E-1,1.127657220E-1,-5.329537392E-1,-1.018748656E-1
4.665375000E-1,1.127657220E-1,-5.329537392E-1,-1.018748656E-1
4.715000000E-1,1.051909924E-1,-4.787088931E-1,-8.646360785E-2
4.764640620E-1,1.051909924E-1,-4.787088931E-1,-8.646360785E-2
4.814265620E-1,9.063494951E-2,-3.997153044E-1,-5.160938576E-2
4.863890620E-1,9.063494951E-2,-3.997153044E-1,-5.160938576E-2
4.913531250E-1,7.712610066E-2,-3.106162548E-1,-4.031710327E-3
4.963156250E-1,7.712610066E-2,-3.106162548E-1,-4.031710327E-3
5.012796870E-1,6.277949363E-2,-2.437526882E-1,3.316125646E-2
5.062421870E-1,6.277949363E-2,-2.437526882E-1,3.316125646E-2
5.112062500E-1,5.291838199E-2,-1.968033314E-1,4.963716492E-2
5.161687500E-1,5.291838199E-2,-1.968033314E-1,4.963716492E-2
5.211312500E-1,4.756022245E-2,-1.457000822E-1,5.686282739E-2
5.260953120E-1,4.756022245E-2,-1.457000822E-1,5.686282739E-2
5.310578120E-1,4.356341809E-2,-9.445721656E-2,5.733406544E-2
5.360218750E-1,4.356341809E-2,-9.445721656E-2,5.733406544E-2
5.409843750E-1,4.091051593E-2,-8.150687441E-3,5.890486389E-2
5.459484370E-1,4.091051593E-2,-8.150687441E-3,5.890486389E-2
5.509109370E-1,4.157374427E-2,6.895796210E-2,5.976007506E-2
5.558734370E-1,4.157374427E-2,6.895796210E-2,5.976007506E-2
5.608375000E-1,4.841543362E-2,8.477064222E-2,5.639158934E-2
5.658000000E-1,4.841543362E-2,8.477064222E-2,5.639158934E-2
5.707640620E-1,5.682792142E-2,3.403392062E-2,4.735078290E-2
5.757265620E-1,5.682792142E-2,3.403392062E-2,4.735078290E-2
5.806906250E-1,6.274458766E-2,2.823942713E-2,4.326671362E-2
5.856531250E-1,6.274458766E-2,2.823942713E-2,4.326671362E-2
5.906156250E-1,6.162757427E-2,2.471386269E-2,3.961897269E-2
5.955796870E-1,6.162757427E-2,2.471386269E-2,3.961897269E-2
6.005421870E-1,5.757841095E-2,2.796017379E-2,3.773401678E-2
6.055062500E-1,5.757841095E-2,2.796017379E-2,3.773401678E-2
6.104687500E-1,5.030038953E-2,2.022836544E-2,3.677408770E-2
6.154312500E-1,5.030038953E-2,2.022836544E-2,3.677408770E-2
6.203953120E-1,3.960151970E-2,4.625122529E-3,3.899065405E-2
6.253578120E-1,3.960151970E-2,4.625122529E-3,3.899065405E-2
6.303218750E-1,3.007202223E-2,2.087413706E-2,4.745550081E-2
6.352843750E-1,3.007202223E-2,2.087413706E-2,4.745550081E-2
6.402468750E-1,2.436479554E-2,3.059562109E-2,5.588544160E-2
6.452109370E-1,2.436479554E-2,3.059562109E-2,5.588544160E-2
6.501734370E-1,1.954768784E-2,4.553563893E-2,6.806784123E-2
6.551375000E-1,1.954768784E-2,4.553563893E-2,6.806784123E-2
6.601000000E-1,4.031710327E-3,9.080947936E-2,8.384561539E-2
6.650625000E-1,4.031710327E-3,9.080947936E-2,8.384561539E-2
6.700265620E-1,-2.162462845E-2,1.562767774E-1,1.023286507E-1
6.749890620E-1,-2.162462845E-2,1.562767774E-1,1.023286507E-1
6.799531250E-1,-5.141739920E-2,2.425134927E-1,1.213178337E-1
6.849156250E-1,-5.141739920E-2,2.425134927E-1,1.213178337E-1
6.898796870E-1,-7.946483791E-2,3.262369335E-1,1.366767287E-1
6.948406250E-1,-7.946483791E-2,3.262369335E-1,1.366767287E-1
6.998046870E-1,-9.822712839E-2,3.931005001E-1,1.469043642E-1
7.047671870E-1,-9.822712839E-2,3.931005001E-1,1.469043642E-1
7.097312500E-1,-1.082104146E-1,4.458967149E-1,1.515993029E-1
7.146953120E-1,-1.082104146E-1,4.458967149E-1,1.515993029E-1
7.196578120E-1,-1.071632132E-1,4.745724797E-1,1.493652761E-1
7.246218750E-1,-1.071632132E-1,4.745724797E-1,1.493652761E-1
7.295843750E-1,-9.920451790E-2,4.655665755E-1,1.399579495E-1
7.345484370E-1,-9.920451790E-2,4.655665755E-1,1.399579495E-1
7.395093750E-1,-8.410741389E-2,4.621457458E-1,1.276882887E-1
7.444734370E-1,-8.410741389E-2,4.621457458E-1,1.276882887E-1
7.494359370E-1,-7.044149190E-2,4.142364562E-1,1.117359772E-1
7.544000000E-1,-7.044149190E-2,4.142364562E-1,1.117359772E-1
7.593625000E-1,-5.906194076E-2,3.652974069E-1,9.941395372E-2
7.643265620E-1,-5.906194076E-2,3.652974069E-1,9.941395372E-2
7.692906250E-1,-5.223770440E-2,2.980673313E-1,7.918559015E-2
7.742531250E-1,-5.223770440E-2,2.980673313E-1,7.918559015E-2
7.792156250E-1,-3.618067503E-2,2.375567704E-1,4.961971194E-2
7.841796870E-1,-3.618067503E-2,2.375567704E-1,4.961971194E-2
7.891421870E-1,-1.682497375E-2,1.594881862E-1,7.871435024E-3
7.941062500E-1,-1.682497375E-2,1.594881862E-1,7.871435024E-3
7.990687500E-1,-7.330382941E-4,7.642796636E-2,-4.012512043E-2
8.040328120E-1,-7.330382941E-4,7.642796636E-2,-4.012512043E-2
8.089953120E-1,8.918632753E-3,1.864011586E-2,-8.367108554E-2
8.139578120E-1,8.918632753E-3,1.864011586E-2,-8.367108554E-2
8.189218750E-1,1.188569237E-2,-9.861109778E-3,-1.074948311E-1
8.238843750E-1,1.188569237E-2,-9.861109778E-3,-1.074948311E-1
8.288484370E-1,8.674286306E-3,-1.282817032E-2,-1.127482727E-1
8.338109370E-1,8.674286306E-3,-1.282817032E-2,-1.127482727E-1
8.387734370E-1,2.408554312E-3,-8.918632753E-3,-1.089783609E-1
8.437359370E-1,2.408554312E-3,-8.918632753E-3,-1.089783609E-1
8.487000000E-1,8.203047328E-4,-6.318091881E-3,-1.017526984E-1
8.536625000E-1,8.203047328E-4,-6.318091881E-3,-1.017526984E-1
8.586265620E-1,-8.115780540E-3,3.817034885E-2,-9.302604944E-2
8.635890620E-1,-8.115780540E-3,3.817034885E-2,-9.302604944E-2
8.685531250E-1,-3.082251363E-2,1.164832711E-1,-8.100073040E-2
8.735171870E-1,-3.082251363E-2,1.164832711E-1,-8.100073040E-2
8.784781250E-1,-5.750859901E-2,1.531177312E-1,-7.459536940E-2
8.834421870E-1,-5.750859901E-2,1.531177312E-1,-7.459536940E-2
8.884046870E-1,-7.106980681E-2,1.775523424E-1,-7.127925009E-2
8.933671870E-1,-7.106980681E-2,1.775523424E-1,-7.127925009E-2
8.983312500E-1,-6.803293526E-2,1.524021477E-1,-7.562511414E-2
9.032937500E-1,-6.803293526E-2,1.524021477E-1,-7.562511414E-2
9.082578120E-1,-5.764822662E-2,1.206546128E-1,-8.299040794E-2
9.132203120E-1,-5.764822662E-2,1.206546128E-1,-8.299040794E-2
9.181843750E-1,-4.836307466E-2,9.182177484E-2,-9.578366578E-2
9.231468750E-1,-4.836307466E-2,9.182177484E-2,-9.578366578E-2
9.281093750E-1,-4.159119725E-2,4.497713596E-2,-1.181064323E-1
9.330734370E-1,-4.159119725E-2,4.497713596E-2,-1.181064323E-1
9.380359370E-1,-3.471459821E-2,-8.709193207E-3,-1.476548612E-1
9.430000000E-1,-3.471459821E-2,-8.709193207E-3,-1.476548612E-1
9.479625000E-1,-2.965314314E-2,-5.272639543E-2,-1.763480604E-1
9.529265620E-1,-2.965314314E-2,-5.272639543E-2,-1.763480604E-1
9.578906250E-1,-2.305579931E-2,-8.672541380E-2,-1.997354776E-1
9.628515620E-1,-2.305579931E-2,-8.672541380E-2,-1.997354776E-1
9.678156250E-1,-6.789330859E-3,-1.338667572E-1,-2.217266262E-1
9.727781250E-1,-6.789330859E-3,-1.338667572E-1,-2.217266262E-1
9.777421870E-1,1.415462047E-2,-2.024756521E-1,-2.421644330E-1
9.827046870E-1,1.415462047E-2,-2.024756521E-1,-2.421644330E-1
9.876687500E-1,3.157300502E-2,-2.400351316E-1,-2.577502131E-1
9.926312500E-1,3.157300502E-2,-2.400351316E-1,-2.577502131E-1
9.975937500E-1,4.457570985E-2,-2.725157142E-1,-2.695137560E-1
1.002557812E0,4.457570985E-2,-2.725157142E-1,-2.695137560E-1
1.007520312E0,5.433209985E-2,-2.732836604E-1,-2.750813365E-1
1.012484375E0,5.433209985E-2,-2.732836604E-1,-2.750813365E-1
1.017446875E0,5.942846090E-2,-2.528109550E-1,-2.723586261E-1
1.022410937E0,5.942846090E-2,-2.528109550E-1,-2.723586261E-1
1.027373437E0,5.911429971E-2,-2.110626698E-1,-2.613979578E-1
1.032335937E0,5.911429971E-2,-2.110626698E-1,-2.613979578E-1
1.037300000E0,5.117305368E-2,-1.791580468E-1,-2.490235716E-1
1.042262500E0,5.117305368E-2,-1.791580468E-1,-2.490235716E-1
1.047226562E0,4.213224724E-2,-1.683719158E-1,-2.380454540E-1
1.052189062E0,4.213224724E-2,-1.683719158E-1,-2.380454540E-1
1.057153125E0,3.563962504E-2,-1.762607992E-1,-2.283239663E-1
1.062115625E0,3.563962504E-2,-1.762607992E-1,-2.283239663E-1
1.067079687E0,2.518510073E-2,-1.359262466E-1,-2.117433399E-1
1.072042187E0,2.518510073E-2,-1.359262466E-1,-2.117433399E-1
1.077004687E0,-5.654866807E-3,-1.398008689E-2,-1.860171854E-1
1.081968750E0,-5.654866807E-3,-1.398008689E-2,-1.860171854E-1
1.086931250E0,-5.480333790E-2,1.636071652E-1,-1.556833684E-1
1.091893750E0,-5.480333790E-2,1.636071652E-1,-1.556833684E-1
1.096857812E0,-1.074948311E-1,2.672622800E-1,-1.325054020E-1
1.101820312E0,-1.074948311E-1,2.672622800E-1,-1.325054020E-1
1.106784375E0,-1.500983089E-1,3.424161375E-1,-1.118756011E-1
1.111746875E0,-1.500983089E-1,3.424161375E-1,-1.118756011E-1
1.116710937E0,-1.738696992E-1,4.027870893E-1,-9.318313003E-2
1.121675000E0,-1.738696992E-1,4.027870893E-1,-9.318313003E-2
1.126637500E0,-1.826312542E-1,4.380776286E-1,-7.827802002E-2
1.131600000E0,-1.826312542E-1,4.380776286E-1,-7.827802002E-2
1.136562500E0,-1.811826229E-1,4.614301324E-1,-6.838200241E-2
1.141526562E0,-1.811826229E-1,4.614301324E-1,-6.838200241E-2
1.146489062E0,-1.685464382E-1,4.413937628E-1,-6.979571283E-2
1.151453125E0,-1.685464382E-1,4.413937628E-1,-6.979571283E-2
1.156415625E0,-1.481260955E-1,3.830997646E-1,-8.154178411E-2
1.161378125E0,-1.481260955E-1,3.830997646E-1,-8.154178411E-2
1.166342187E0,-1.255415380E-1,3.325550258E-1,-9.487609565E-2
1.171304687E0,-1.255415380E-1,3.325550258E-1,-9.487609565E-2
1.176268750E0,-1.053306237E-1,2.568950057E-1,-1.067094281E-1
1.181231250E0,-1.053306237E-1,2.568950057E-1,-1.067094281E-1
1.186193750E0,-9.166469425E-2,2.046224028E-1,-1.145459563E-1
1.191157812E0,-9.166469425E-2,2.046224028E-1,-1.145459563E-1
1.196120312E0,-7.747516781E-2,1.555437446E-1,-1.182809621E-1
1.201084375E0,-7.747516781E-2,1.555437446E-1,-1.182809621E-1
1.206046875E0,-5.740387738E-2,1.146157682E-1,-1.147204936E-1
1.211010937E0,-5.740387738E-2,1.146157682E-1,-1.147204936E-1
1.215973437E0,-3.602359444E-2,7.052875310E-2,-1.095892265E-1
1.220935937E0,-3.602359444E-2,7.052875310E-2,-1.095892265E-1
1.225900000E0,-1.877974346E-2,3.427826613E-2,-1.040216237E-1
1.230862500E0,-1.877974346E-2,3.427826613E-2,-1.040216237E-1
1.235826562E0,-8.063420653E-3,3.152064607E-2,-9.253735840E-2
1.240789062E0,-8.063420653E-3,3.152064607E-2,-9.253735840E-2
1.245753125E0,-5.096361507E-3,5.063199997E-2,-7.820820063E-2
1.250715625E0,-5.096361507E-3,5.063199997E-2,-7.820820063E-2
1.255678125E0,-1.136209350E-2,7.923794538E-2,-6.593853980E-2
1.260642187E0,-1.136209350E-2,7.923794538E-2,-6.593853980E-2
1.265604687E0,-2.247984149E-2,1.154709831E-1,-4.557054490E-2
1.270568750E0,-2.247984149E-2,1.154709831E-1,-4.557054490E-2
1.275531250E0,-3.267256171E-2,1.907819360E-1,-1.286307629E-2
1.280495312E0,-3.267256171E-2,1.907819360E-1,-1.286307629E-2
1.285457812E0,-3.179989755E-2,2.273989469E-1,1.858775690E-2
1.290420312E0,-3.179989755E-2,2.273989469E-1,1.858775690E-2
1.295384375E0,-4.272565991E-2,2.492853701E-1,4.712389037E-2
1.300346875E0,-4.272565991E-2,2.492853701E-1,4.712389037E-2
1.305310937E0,-6.674139202E-2,3.190810978E-1,7.805112749E-2
1.310273437E0,-6.674139202E-2,3.190810978E-1,7.805112749E-2
1.315237500E0,-9.405579418E-2,3.863286376E-1,1.043881401E-1
1.320200000E0,-9.405579418E-2,3.863286376E-1,1.043881401E-1
1.325162500E0,-1.143016145E-1,4.237310290E-1,1.241627261E-1
1.330126562E0,-1.143016145E-1,4.237310290E-1,1.241627261E-1
1.335089062E0,-1.239532828E-1,4.428947568E-1,1.386489570E-1
1.340053125E0,-1.239532828E-1,4.428947568E-1,1.386489570E-1
1.345015625E0,-1.266061813E-1,4.308868945E-1,1.438500434E-1
1.349978125E0,-1.266061813E-1,4.308868945E-1,1.438500434E-1
1.354942187E0,-1.183682308E-1,3.700098097E-1,1.381253600E-1
1.359904687E0,-1.183682308E-1,3.700098097E-1,1.381253600E-1
1.364868750E0,-1.110902056E-1,3.303908408E-1,1.299048513E-1
1.369831250E0,-1.110902056E-1,3.303908408E-1,1.299048513E-1
1.374795312E0,-1.074424684E-1,3.208613396E-1,1.199564785E-1
1.379757812E0,-1.074424684E-1,3.208613396E-1,1.199564785E-1
1.384720312E0,-1.091179848E-1,3.219085336E-1,1.060985625E-1
1.389684375E0,-1.091179848E-1,3.219085336E-1,1.060985625E-1
1.394646875E0,-1.075646430E-1,2.997777462E-1,8.934340626E-2
1.399610937E0,-1.075646430E-1,2.997777462E-1,8.934340626E-2
1.404573437E0,-9.414306283E-2,2.502627671E-1,7.483971864E-2
1.409537500E0,-9.414306283E-2,2.502627671E-1,7.483971864E-2
1.414500000E0,-7.356562465E-2,1.899441779E-1,5.747369304E-2
1.419462500E0,-7.356562465E-2,1.899441779E-1,5.747369304E-2
1.424426562E0,-5.569345504E-2,1.353851855E-1,3.164282069E-2
1.429389062E0,-5.569345504E-2,1.353851855E-1,3.164282069E-2
1.434353125E0,-4.653047770E-2,1.011767387E-1,6.422811653E-3
1.439315625E0,-4.653047770E-2,1.011767387E-1,6.422811653E-3
1.444279687E0,-2.942625061E-2,4.518657550E-2,-1.244419720E-2
1.449242187E0,-2.942625061E-2,4.518657550E-2,-1.244419720E-2
1.454204687E0,6.265731994E-3,-6.517059356E-2,-2.368411794E-2
1.459168750E0,6.265731994E-3,-6.517059356E-2,-2.368411794E-2
1.464131250E0,5.080653355E-2,-1.985311955E-1,-2.731440216E-2
1.469095312E0,5.080653355E-2,-1.985311955E-1,-2.731440216E-2
1.474057812E0,8.620180935E-2,-2.780832946E-1,-2.363175713E-2
1.479021875E0,8.620180935E-2,-2.780832946E-1,-2.363175713E-2
1.483984375E0,9.848892689E-2,-3.336022198E-1,-2.719222941E-2
1.488946875E0,9.848892689E-2,-3.336022198E-1,-2.719222941E-2
1.493910937E0,9.463175386E-2,-3.177895546E-1,-1.485275198E-2
1.498873437E0,9.463175386E-2,-3.177895546E-1,-1.485275198E-2
1.503837500E0,8.538150787E-2,-2.845061123E-1,1.631882787E-2
1.508800000E0,8.538150787E-2,-2.845061123E-1,1.631882787E-2
1.513764062E0,7.625343651E-2,-2.362826765E-1,5.497787148E-2
1.518726562E0,7.625343651E-2,-2.362826765E-1,5.497787148E-2
1.523689062E0,6.644468755E-2,-2.025105506E-1,8.402015269E-2
1.528653125E0,6.644468755E-2,-2.025105506E-1,8.402015269E-2
1.533615625E0,5.684537441E-2,-1.707455665E-1,1.028173491E-1
1.538579687E0,5.684537441E-2,-1.707455665E-1,1.028173491E-1
1.543542187E0,4.928809777E-2,-1.920211166E-1,1.071108580E-1
1.548506250E0,4.928809777E-2,-1.920211166E-1,1.071108580E-1
1.553468750E0,4.302236438E-2,-2.282367051E-1,9.566149861E-2
1.558432812E0,4.302236438E-2,-2.282367051E-1,9.566149861E-2
1.563395312E0,3.476695716E-2,-2.186548412E-1,8.217009902E-2
1.568357812E0,3.476695716E-2,-2.186548412E-1,8.217009902E-2
1.573321875E0,2.986258268E-2,-2.109055817E-1,6.787585467E-2
1.578284375E0,2.986258268E-2,-2.109055817E-1,6.787585467E-2
1.583248437E0,2.921681106E-2,-1.975189149E-1,5.450663343E-2
1.588210937E0,2.921681106E-2,-1.975189149E-1,5.450663343E-2
1.593173437E0,2.785545401E-2,-1.845685691E-1,4.591961205E-2
1.598137500E0,2.785545401E-2,-1.845685691E-1,4.591961205E-2
1.603100000E0,2.783800103E-2,-2.111150324E-1,3.103195317E-2
1.608062500E0,2.783800103E-2,-2.111150324E-1,3.103195317E-2
1.613026562E0,3.530801088E-2,-2.172760367E-1,1.120501384E-2
1.617989062E0,3.530801088E-2,-2.172760367E-1,1.120501384E-2
1.622953125E0,5.038765445E-2,-2.366666496E-1,-1.171115879E-2
1.627915625E0,5.038765445E-2,-2.366666496E-1,-1.171115879E-2
1.632879687E0,7.428121567E-2,-2.719921172E-1,-2.843141370E-2
1.637842187E0,7.428121567E-2,-2.719921172E-1,-2.843141370E-2
1.642804687E0,1.003040746E-1,-3.170390427E-1,-3.804817796E-2
1.647768750E0,1.003040746E-1,-3.170390427E-1,-3.804817796E-2
1.652732812E0,1.163785532E-1,-3.460638821E-1,-4.024729133E-2
1.657695312E0,1.163785532E-1,-3.460638821E-1,-4.024729133E-2
1.662659375E0,1.233249679E-1,-3.870965838E-1,-3.993313387E-2
1.667621875E0,1.233249679E-1,-3.870965838E-1,-3.993313387E-2
1.672584375E0,1.202357337E-1,-3.900636435E-1,-3.693116829E-2
1.677546875E0,1.202357337E-1,-3.900636435E-1,-3.693116829E-2
1.682510937E0,1.133242249E-1,-3.844087720E-1,-3.300417587E-2
1.687473437E0,1.133242249E-1,-3.844087720E-1,-3.300417587E-2
1.692437500E0,1.069537774E-1,-3.386113346E-1,-9.250245057E-3
1.697401562E0,1.069537774E-1,-3.386113346E-1,-9.250245057E-3
1.702362500E0,1.041088924E-1,-2.737374306E-1,3.586651757E-2
1.707326562E0,1.041088924E-1,-2.737374306E-1,3.586651757E-2
1.712289062E0,9.855873883E-2,-1.980250627E-1,9.375908971E-2
1.717253125E0,9.855873883E-2,-1.980250627E-1,9.375908971E-2
1.722215625E0,8.693484962E-2,-1.275661141E-1,1.476548612E-1
1.727179687E0,8.693484962E-2,-1.275661141E-1,1.476548612E-1
1.732142187E0,7.386233658E-2,-6.839945167E-2,1.852492392E-1
1.737106250E0,7.386233658E-2,-6.839945167E-2,1.852492392E-1
1.742068750E0,6.560692936E-2,-4.063126445E-2,1.976236254E-1
1.747032812E0,6.560692936E-2,-4.063126445E-2,1.976236254E-1
1.751995312E0,5.246459693E-2,-1.843067631E-2,1.927192509E-1
1.756957812E0,5.246459693E-2,-1.843067631E-2,1.927192509E-1
1.761921875E0,3.525565192E-2,-5.358160939E-3,1.787915230E-1
1.766884375E0,3.525565192E-2,-5.358160939E-3,1.787915230E-1
1.771848437E0,1.942551509E-2,5.969026126E-3,1.611637026E-1
1.776810937E0,1.942551509E-2,5.969026126E-3,1.611637026E-1
1.781775000E0,9.459684603E-3,-4.747295752E-3,1.409178823E-1
1.786737500E0,9.459684603E-3,-4.747295752E-3,1.409178823E-1
1.791700000E0,4.939281847E-3,-3.792600334E-2,1.209338605E-1
1.796664062E0,4.939281847E-3,-3.792600334E-2,1.209338605E-1
1.801626562E0,7.784168236E-3,-5.644394830E-2,1.066221669E-1
1.806590625E0,7.784168236E-3,-5.644394830E-2,1.066221669E-1
1.811553125E0,1.373574138E-2,-6.614797562E-2,9.608037770E-2
1.816517187E0,1.373574138E-2,-6.614797562E-2,9.608037770E-2
1.821479687E0,1.619665511E-2,-8.119271696E-2,8.796459436E-2
1.826443750E0,1.619665511E-2,-8.119271696E-2,8.796459436E-2
1.831406250E0,1.413716655E-2,-1.013338193E-1,8.463101834E-2
1.836368750E0,1.413716655E-2,-1.013338193E-1,8.463101834E-2
1.841332812E0,1.261873078E-2,-1.066570729E-1,9.051277488E-2
1.846293750E0,1.261873078E-2,-1.066570729E-1,9.051277488E-2
1.851257812E0,1.434660610E-2,-8.962265402E-2,1.056098714E-1
1.856220312E0,1.434660610E-2,-8.962265402E-2,1.056098714E-1
1.861184375E0,1.860520989E-2,-5.874778330E-2,1.282991469E-1
1.866148437E0,1.860520989E-2,-5.874778330E-2,1.282991469E-1
1.871109375E0,2.551671304E-2,-5.117305368E-2,1.476897597E-1
1.876073437E0,2.551671304E-2,-5.117305368E-2,1.476897597E-1
1.881037500E0,3.206169978E-2,-5.003859103E-2,1.546361744E-1
1.886000000E0,3.206169978E-2,-5.003859103E-2,1.546361744E-1
1.890964062E0,3.300417587E-2,-5.853834376E-2,1.465727538E-1
1.895926562E0,3.300417587E-2,-5.853834376E-2,1.465727538E-1
1.900889062E0,2.682571113E-2,-7.668976486E-2,1.316327304E-1
1.905853125E0,2.682571113E-2,-7.668976486E-2,1.316327304E-1
1.910815625E0,2.089159191E-2,-7.089527696E-2,1.232202426E-1
1.915778125E0,2.089159191E-2,-7.089527696E-2,1.232202426E-1
1.920742187E0,1.680752076E-2,-6.672393531E-2,1.206720620E-1
1.925704687E0,1.680752076E-2,-6.672393531E-2,1.206720620E-1
1.930668750E0,2.460914198E-3,-7.101744413E-2,1.186474785E-1
1.935632812E0,2.460914198E-3,-7.101744413E-2,1.186474785E-1
1.940595312E0,-2.206096239E-2,-8.374089748E-2,1.148601174E-1
1.945559375E0,-2.206096239E-2,-8.374089748E-2,1.148601174E-1
1.950520312E0,-5.129522830E-2,-7.075564563E-2,1.106189713E-1
1.955484375E0,-5.129522830E-2,-7.075564563E-2,1.106189713E-1
1.960446875E0,-7.724827528E-2,-8.676031977E-2,1.014036313E-1
1.965410937E0,-7.724827528E-2,-8.676031977E-2,1.014036313E-1
1.970373437E0,-8.822639287E-2,-6.452482194E-2,9.403833747E-2
1.975337500E0,-8.822639287E-2,-6.452482194E-2,9.403833747E-2
1.980300000E0,-8.361872286E-2,-5.440191180E-2,8.412487060E-2
1.985262500E0,-8.361872286E-2,-5.440191180E-2,8.412487060E-2
1.990226562E0,-7.312929630E-2,-7.297221571E-2,7.072073966E-2
1.995189062E0,-7.312929630E-2,-7.297221571E-2,7.072073966E-2
2.000153125E0,-6.361725181E-2,-1.172686741E-1,5.511749908E-2
2.005117187E0,-6.361725181E-2,-1.172686741E-1,5.511749908E-2
2.010078125E0,-5.436700583E-2,-1.734159142E-1,4.035201296E-2
2.015043750E0,-5.436700583E-2,-1.734159142E-1,4.035201296E-2
2.020004687E0,-4.354596511E-2,-2.108357698E-1,2.579596639E-2
2.024970312E0,-4.354596511E-2,-2.108357698E-1,2.579596639E-2
2.029932812E0,-3.401646763E-2,-2.260375917E-1,9.494591504E-3
2.034895312E0,-3.401646763E-2,-2.260375917E-1,9.494591504E-3
2.039859375E0,-2.701769583E-2,-2.448871434E-1,-1.043706853E-2
2.044821875E0,-2.701769583E-2,-2.448871434E-1,-1.043706853E-2
2.049785937E0,-2.115339041E-2,-2.534916103E-1,-2.963569015E-2
2.054746875E0,-2.115339041E-2,-2.534916103E-1,-2.963569015E-2
2.059710937E0,-1.567305624E-2,-2.489363104E-1,-4.249876738E-2
2.064673437E0,-1.567305624E-2,-2.489363104E-1,-4.249876738E-2
2.069637500E0,-1.363102160E-2,-2.396511585E-1,-4.721115530E-2
2.074600000E0,-1.363102160E-2,-2.396511585E-1,-4.721115530E-2
2.079562500E0,-1.712168008E-2,-1.966811568E-1,-4.171336815E-2
2.084526562E0,-1.712168008E-2,-1.966811568E-1,-4.171336815E-2
2.089489062E0,-2.796017379E-2,-1.402895600E-1,-3.200933710E-2
2.094453125E0,-2.796017379E-2,-1.402895600E-1,-3.200933710E-2
2.099415625E0,-4.722860828E-2,-5.960299447E-2,-2.094395086E-2
2.104379687E0,-4.722860828E-2,-5.960299447E-2,-2.094395086E-2
2.109342187E0,-7.105235010E-2,2.523746155E-2,-1.127482671E-2
2.114304687E0,-7.105235010E-2,2.523746155E-2,-1.127482671E-2
2.119268750E0,-9.328784794E-2,9.306095541E-2,-5.078908056E-3
2.124231250E0,-9.328784794E-2,9.306095541E-2,-5.078908056E-3
2.129195312E0,-1.063080058E-1,1.300095767E-1,-3.944444004E-3
2.134157812E0,-1.063080058E-1,1.300095767E-1,-3.944444004E-3
2.139120312E0,-1.032711342E-1,1.008102149E-1,-1.345648803E-2
2.144084375E0,-1.032711342E-1,1.008102149E-1,-1.345648803E-2
2.149048437E0,-8.943066746E-2,5.031784251E-2,-2.918190509E-2
2.154012500E0,-8.943066746E-2,5.031784251E-2,-2.918190509E-2
2.158973437E0,-7.581710070E-2,1.576032303E-2,-4.818854108E-2
2.163937500E0,-7.581710070E-2,1.576032303E-2,-4.818854108E-2
2.168900000E0,-6.927211583E-2,-1.144936029E-2,-7.075564563E-2
2.173862500E0,-6.927211583E-2,-1.144936029E-2,-7.075564563E-2
2.178826562E0,-6.937684119E-2,-3.351032268E-3,-9.318313003E-2
2.183789062E0,-6.937684119E-2,-3.351032268E-3,-9.318313003E-2
2.188753125E0,-7.302457839E-2,1.507964451E-2,-1.057320461E-1
2.193715625E0,-7.302457839E-2,1.507964451E-2,-1.057320461E-1
2.198679687E0,-7.644542307E-2,4.654793069E-2,-1.001469940E-1
2.203642187E0,-7.644542307E-2,4.654793069E-2,-1.001469940E-1
2.208604687E0,-7.840018719E-2,7.848745584E-2,-8.557349443E-2
2.213568750E0,-7.840018719E-2,7.848745584E-2,-8.557349443E-2
2.218531250E0,-7.768460363E-2,1.177573651E-1,-6.640977412E-2
2.223495312E0,-7.768460363E-2,1.177573651E-1,-6.640977412E-2
2.228457812E0,-7.195992768E-2,1.114043668E-1,-5.654866621E-2
2.233421875E0,-7.195992768E-2,1.114043668E-1,-5.654866621E-2
2.238384375E0,-6.291911751E-2,1.250353903E-1,-4.827580601E-2
2.243346875E0,-6.291911751E-2,1.250353903E-1,-4.827580601E-2
2.248310937E0,-5.150466785E-2,1.178795397E-1,-4.387757555E-2
2.253273437E0,-5.150466785E-2,1.178795397E-1,-4.387757555E-2
2.258237500E0,-3.918264061E-2,1.259080470E-1,-3.928736225E-2
2.263200000E0,-3.918264061E-2,1.259080470E-1,-3.928736225E-2
2.268164062E0,-3.068288788E-2,1.430995464E-1,-3.539527580E-2
2.273126562E0,-3.068288788E-2,1.430995464E-1,-3.539527580E-2
2.278089062E0,-2.830924094E-2,2.114815414E-1,-2.892010473E-2
2.283053125E0,-2.830924094E-2,2.114815414E-1,-2.892010473E-2
2.288015625E0,-1.160643995E-2,2.120226026E-1,-3.694862127E-2
2.292979687E0,-1.160643995E-2,2.120226026E-1,-3.694862127E-2
2.297942187E0,1.398008689E-2,1.831199378E-1,-5.656611919E-2
2.302906250E0,1.398008689E-2,1.831199378E-1,-5.656611919E-2
2.307868750E0,3.218387067E-2,1.703092307E-1,-7.616616786E-2
2.312831250E0,3.218387067E-2,1.703092307E-1,-7.616616786E-2
2.317795312E0,4.347615317E-2,1.993166059E-1,-8.257152885E-2
2.322757812E0,4.347615317E-2,1.993166059E-1,-8.257152885E-2
2.327721875E0,5.059709400E-2,2.225992978E-1,-8.239699155E-2
2.332684375E0,5.059709400E-2,2.225992978E-1,-8.239699155E-2
2.337648437E0,5.534439161E-2,2.213601023E-1,-8.122762293E-2
2.342610937E0,5.534439161E-2,2.213601023E-1,-8.122762293E-2
2.347573437E0,6.632251292E-2,2.160368562E-1,-8.047713339E-2
2.352537500E0,6.632251292E-2,2.160368562E-1,-8.047713339E-2
2.357500000E0,8.965755999E-2,1.579173952E-1,-8.712683618E-2
2.362464062E0,8.965755999E-2,1.579173952E-1,-8.712683618E-2
2.367426562E0,1.242848933E-1,7.012733072E-2,-9.581857920E-2
2.372395312E0,1.242848933E-1,7.012733072E-2,-9.581857920E-2
2.377353125E0,1.635373533E-1,-3.892084211E-2,-1.048942879E-1
2.382315625E0,1.635373533E-1,-3.892084211E-2,-1.048942879E-1
2.387279687E0,2.019520402E-1,-1.255764365E-1,-1.099557430E-1
2.392242187E0,2.019520402E-1,-1.255764365E-1,-1.099557430E-1
2.397206250E0,2.361430526E-1,-1.869422197E-1,-1.108633131E-1
2.402168750E0,2.361430526E-1,-1.869422197E-1,-1.108633131E-1
2.407132812E0,2.520080805E-1,-2.202256471E-1,-1.077042669E-1
2.412095312E0,2.520080805E-1,-2.202256471E-1,-1.077042669E-1
2.417057812E0,2.452885658E-1,-2.180614322E-1,-1.000073627E-1
2.422021875E0,2.452885658E-1,-2.180614322E-1,-1.000073627E-1
2.426984375E0,2.182185203E-1,-1.615651250E-1,-8.658578247E-2
2.431948437E0,2.182185203E-1,-1.615651250E-1,-8.658578247E-2
2.436910937E0,1.875356287E-1,-1.055400595E-1,-7.386233658E-2
2.441875000E0,1.875356287E-1,-1.055400595E-1,-7.386233658E-2
2.446837500E0,1.615302265E-1,-4.701916873E-2,-6.222098693E-2
2.451800000E0,1.615302265E-1,-4.701916873E-2,-6.222098693E-2
2.456764062E0,1.435707808E-1,-3.621558100E-2,-5.703736097E-2
2.461726562E0,1.435707808E-1,-3.621558100E-2,-5.703736097E-2
2.466690625E0,1.232202426E-1,-1.048942842E-2,-5.400048569E-2
2.471653125E0,1.232202426E-1,-1.048942842E-2,-5.400048569E-2
2.476617187E0,9.742427617E-2,-7.243116386E-3,-5.691518635E-2
2.481579687E0,9.742427617E-2,-7.243116386E-3,-5.691518635E-2
2.486542187E0,8.148942143E-2,-1.052433532E-2,-6.607816368E-2
2.491506250E0,8.148942143E-2,-1.052433532E-2,-6.607816368E-2
2.496468750E0,8.709193021E-2,-5.197590590E-2,-8.326965570E-2
2.501432812E0,8.709193021E-2,-5.197590590E-2,-8.326965570E-2
2.506395312E0,1.010371074E-1,-1.048419252E-1,-1.061334684E-1
2.511357812E0,1.010371074E-1,-1.048419252E-1,-1.061334684E-1
2.516321875E0,1.056447774E-1,-1.446179748E-1,-1.295906901E-1
2.521284375E0,1.056447774E-1,-1.446179748E-1,-1.295906901E-1
2.526248437E0,9.896016866E-2,-1.759815514E-1,-1.451939344E-1
2.531210937E0,9.896016866E-2,-1.759815514E-1,-1.451939344E-1
2.536175000E0,9.731955826E-2,-2.337694019E-1,-1.552121341E-1
2.541137500E0,9.731955826E-2,-2.337694019E-1,-1.552121341E-1
2.546100000E0,1.001993492E-1,-2.449395061E-1,-1.467298269E-1
2.551064062E0,1.001993492E-1,-2.449395061E-1,-1.467298269E-1
2.556026562E0,1.051735431E-1,-2.433338016E-1,-1.283166111E-1
2.560990625E0,1.051735431E-1,-2.433338016E-1,-1.283166111E-1
2.565953125E0,1.092401594E-1,-2.193878889E-1,-1.073726565E-1
2.570917187E0,1.092401594E-1,-2.193878889E-1,-1.073726565E-1
2.575879687E0,1.042310596E-1,-1.904154271E-1,-9.217083454E-2
2.580842187E0,1.042310596E-1,-1.904154271E-1,-9.217083454E-2
2.585806250E0,9.203121066E-2,-1.521054506E-1,-6.958627701E-2
2.590768750E0,9.203121066E-2,-1.521054506E-1,-6.958627701E-2
2.595732812E0,7.592181861E-2,-1.036551073E-1,-2.328269184E-2
2.600695312E0,7.592181861E-2,-1.036551073E-1,-2.328269184E-2
2.605659375E0,5.941100791E-2,-3.324852139E-2,3.953170776E-2
2.610621875E0,5.941100791E-2,-3.324852139E-2,3.953170776E-2
2.615584375E0,4.867723212E-2,1.759291813E-2,9.342747182E-2
2.620548437E0,4.867723212E-2,1.759291813E-2,9.342747182E-2
2.625510937E0,4.328416660E-2,3.649483621E-2,1.208116934E-1
2.630475000E0,4.328416660E-2,3.649483621E-2,1.208116934E-1
2.635437500E0,3.729768470E-2,4.405210912E-2,1.252797395E-1
2.640400000E0,3.729768470E-2,4.405210912E-2,1.252797395E-1
2.645364062E0,2.919935808E-2,4.618141055E-2,1.207069680E-1
2.650326562E0,2.919935808E-2,4.618141055E-2,1.207069680E-1
2.655290625E0,1.975712739E-2,5.201081187E-2,1.114043668E-1
2.660253125E0,1.975712739E-2,5.201081187E-2,1.114043668E-1
2.665217187E0,8.011061698E-3,7.304202765E-2,1.018574163E-1
2.670179687E0,8.011061698E-3,7.304202765E-2,1.018574163E-1
2.675142187E0,-9.320057929E-3,1.203579083E-1,9.622000158E-2
2.680106250E0,-9.320057929E-3,1.203579083E-1,9.622000158E-2
2.685068750E0,-2.837905288E-2,1.592787504E-1,9.039060026E-2
2.690032812E0,-2.837905288E-2,1.592787504E-1,9.039060026E-2
2.694995312E0,-4.375540465E-2,1.601688713E-1,8.232717961E-2
2.699959375E0,-4.375540465E-2,1.601688713E-1,8.232717961E-2
2.704921875E0,-5.714207888E-2,1.908517480E-1,7.803367078E-2
2.709884375E0,-5.714207888E-2,1.908517480E-1,7.803367078E-2
2.714848437E0,-6.784094870E-2,2.525666058E-1,7.712610066E-2
2.719810937E0,-6.784094870E-2,2.525666058E-1,7.712610066E-2
2.724775000E0,-6.909758598E-2,2.891836166E-1,7.257079333E-2
2.729737500E0,-6.909758598E-2,2.891836166E-1,7.257079333E-2
2.734701562E0,-5.867796764E-2,2.639286816E-1,5.923647434E-2
2.739664062E0,-5.867796764E-2,2.639286816E-1,5.923647434E-2
2.744626562E0,-4.305727407E-2,2.358637899E-1,4.188790172E-2
2.749590625E0,-4.305727407E-2,2.358637899E-1,4.188790172E-2
2.754553125E0,-2.904227935E-2,2.465626597E-1,2.771582827E-2
2.759517187E0,-2.904227935E-2,2.465626597E-1,2.771582827E-2
2.764479687E0,-2.202605456E-2,2.831447721E-1,2.101376466E-2
2.769443750E0,-2.202605456E-2,2.831447721E-1,2.101376466E-2
2.774406250E0,-1.569050923E-2,3.429571986E-1,2.506292798E-2
2.779368750E0,-1.569050923E-2,3.429571986E-1,2.506292798E-2
2.784332812E0,-1.047197497E-3,3.282615244E-1,2.904227935E-2
2.789295312E0,-1.047197497E-3,3.282615244E-1,2.904227935E-2
2.794259375E0,1.359611470E-2,3.134436905E-1,3.385938704E-2
2.799221875E0,1.359611470E-2,3.134436905E-1,3.385938704E-2
2.804184375E0,2.085668407E-2,2.985385656E-1,3.654719517E-2
2.809148437E0,2.085668407E-2,2.985385656E-1,3.654719517E-2
2.814110937E0,1.734857261E-2,2.750988007E-1,3.612831607E-2
2.819075000E0,1.734857261E-2,2.750988007E-1,3.612831607E-2
2.824037500E0,1.014036313E-2,2.743832171E-1,5.187118426E-2
2.829001562E0,1.014036313E-2,2.743832171E-1,5.187118426E-2
2.833964062E0,8.447393775E-3,3.131818771E-1,8.176867664E-2
2.838926562E0,8.447393775E-3,3.131818771E-1,8.176867664E-2
2.843890625E0,1.434660610E-2,3.285582364E-1,1.083500385E-1
2.848853125E0,1.434660610E-2,3.285582364E-1,1.083500385E-1
2.853817187E0,2.713987045E-2,3.334451616E-1,1.230282560E-1
2.858779687E0,2.713987045E-2,3.334451616E-1,1.230282560E-1
2.863743750E0,4.080579802E-2,3.078237176E-1,1.167101637E-1
2.868706250E0,4.080579802E-2,3.078237176E-1,1.167101637E-1
2.873668750E0,5.157447979E-2,2.502278686E-1,9.721484035E-2
2.878632812E0,5.157447979E-2,2.502278686E-1,9.721484035E-2
2.883595312E0,5.749114603E-2,1.975712776E-1,7.346090674E-2
2.888557812E0,5.749114603E-2,1.975712776E-1,7.346090674E-2
2.893521875E0,6.096434966E-2,1.402197480E-1,5.351179466E-2
2.898484375E0,6.096434966E-2,1.402197480E-1,5.351179466E-2
2.903448437E0,6.262241304E-2,9.463175386E-2,4.392993823E-2
2.908410937E0,6.262241304E-2,9.463175386E-2,4.392993823E-2
2.913375000E0,6.305874884E-2,4.077089205E-2,1.401499379E-2
2.918337500E0,6.305874884E-2,4.077089205E-2,1.401499379E-2
2.923301562E0,6.276203692E-2,-4.452335089E-2,-3.487167880E-2
2.928264062E0,6.276203692E-2,-4.452335089E-2,-3.487167880E-2
2.933226562E0,6.003932655E-2,-1.390678287E-1,-8.110544831E-2
2.938190625E0,6.003932655E-2,-1.390678287E-1,-8.110544831E-2
2.943153125E0,5.705481395E-2,-2.103994340E-1,-1.104618907E-1
2.948117187E0,5.705481395E-2,-2.103994340E-1,-1.104618907E-1
2.953079687E0,5.459389836E-2,-2.455852777E-1,-1.243372560E-1
2.958042187E0,5.459389836E-2,-2.455852777E-1,-1.243372560E-1
2.963006250E0,5.337216705E-2,-2.298598588E-1,-1.259255111E-1
2.967970312E0,5.337216705E-2,-2.298598588E-1,-1.259255111E-1
2.972932812E0,5.436700583E-2,-2.561096251E-1,-1.277231872E-1
2.977895312E0,5.436700583E-2,-2.561096251E-1,-1.277231872E-1
2.982859375E0,5.548401549E-2,-2.631083727E-1,-1.236216724E-1
2.987821875E0,5.548401549E-2,-2.631083727E-1,-1.236216724E-1
2.992784375E0,5.330235511E-2,-2.397209704E-1,-1.166229025E-1
2.997748437E0,5.330235511E-2,-2.397209704E-1,-1.166229025E-1
3.002710937E0,4.647811875E-2,-2.581167519E-1,-1.122595742E-1
3.007675000E0,4.647811875E-2,-2.581167519E-1,-1.122595742E-1
3.012637500E0,3.796090931E-2,-2.591464818E-1,-1.054876968E-1
3.017600000E0,3.796090931E-2,-2.591464818E-1,-1.054876968E-1
3.022564062E0,3.178244457E-2,-2.437003255E-1,-9.674359858E-2
3.027528125E0,3.178244457E-2,-2.437003255E-1,-9.674359858E-2
3.032490625E0,2.823942713E-2,-2.224422097E-1,-8.834856749E-2
3.037453125E0,2.823942713E-2,-2.224422097E-1,-8.834856749E-2
3.042415625E0,2.118829638E-2,-1.857030392E-1,-7.820820063E-2
3.047379687E0,2.118829638E-2,-1.857030392E-1,-7.820820063E-2
3.052343750E0,1.174606569E-2,-1.576032341E-1,-6.883578748E-2
3.057306250E0,1.174606569E-2,-1.576032341E-1,-6.883578748E-2
3.062268750E0,3.979350906E-3,-1.343205422E-1,-6.082472578E-2
3.067232812E0,3.979350906E-3,-1.343205422E-1,-6.082472578E-2
3.072195312E0,-5.340707488E-3,-1.081929579E-1,-5.366887525E-2
3.077159375E0,-5.340707488E-3,-1.081929579E-1,-5.366887525E-2
3.082121875E0,-7.260569837E-3,-9.667378664E-2,-4.691445082E-2
3.087084375E0,-7.260569837E-3,-9.667378664E-2,-4.691445082E-2
3.092048437E0,-3.263765713E-3,-1.123293936E-1,-4.204498231E-2
3.097010937E0,-3.263765713E-3,-1.123293936E-1,-4.204498231E-2
3.101975000E0,4.188790335E-4,-1.357691586E-1,-3.635520861E-2
3.106937500E0,4.188790335E-4,-1.357691586E-1,-3.635520861E-2
3.111900000E0,2.897246508E-3,-1.517738253E-1,-2.848377265E-2
3.116864062E0,2.897246508E-3,-1.517738253E-1,-2.848377265E-2
3.121826562E0,3.281218931E-3,-1.691573113E-1,-2.038544603E-2
3.126790625E0,3.281218931E-3,-1.691573113E-1,-2.038544603E-2
3.131753125E0,3.787364578E-3,-1.844289452E-1,-1.322959550E-2
3.136717187E0,3.787364578E-3,-1.844289452E-1,-1.322959550E-2
3.141679687E0,4.258603323E-3,-2.226341963E-1,-1.127482671E-2
3.146643750E0,4.258603323E-3,-2.226341963E-1,-1.127482671E-2
3.151606250E0,1.780235791E-3,-2.109404951E-1,-5.427973811E-3
3.156568750E0,1.780235791E-3,-2.109404951E-1,-5.427973811E-3
3.161532812E0,-1.640609466E-3,-1.943424046E-1,-4.834562074E-3
3.166495312E0,-1.640609466E-3,-1.943424046E-1,-4.834562074E-3
3.171457812E0,-2.705260413E-3,-1.670978218E-1,-6.963863503E-3
3.176421875E0,-2.705260413E-3,-1.670978218E-1,-6.963863503E-3
3.181384375E0,-1.193805225E-2,-1.559451669E-1,-1.188569237E-2
3.186348437E0,-1.193805225E-2,-1.559451669E-1,-1.188569237E-2
3.191310937E0,-2.611012571E-2,-1.344601661E-1,-1.478293911E-2
3.196273437E0,-2.611012571E-2,-1.344601661E-1,-1.478293911E-2
3.201237500E0,-3.483677283E-2,-1.061334684E-1,-1.439896598E-2
3.206201562E0,-3.483677283E-2,-1.061334684E-1,-1.439896598E-2
3.211164062E0,-3.391174600E-2,-8.546877652E-2,-1.246165112E-2
3.216126562E0,-3.391174600E-2,-8.546877652E-2,-1.246165112E-2
3.221090625E0,-3.117158078E-2,-7.796385884E-2,-1.357866172E-2
3.226053125E0,-3.117158078E-2,-7.796385884E-2,-1.357866172E-2
3.231017187E0,-3.166027367E-2,-6.183701381E-2,-1.377064735E-2
3.235979687E0,-3.166027367E-2,-6.183701381E-2,-1.377064735E-2
3.240942187E0,-3.590142354E-2,-1.761037298E-2,-9.389871731E-3
3.245906250E0,-3.590142354E-2,-1.761037298E-2,-9.389871731E-3
3.250868750E0,-4.003785178E-2,2.642428502E-2,-3.700098023E-3
3.255831250E0,-4.003785178E-2,2.642428502E-2,-3.700098023E-3
3.260795312E0,-4.225442186E-2,8.326965570E-2,3.281218931E-3
3.265757812E0,-4.225442186E-2,8.326965570E-2,3.281218931E-3
3.270721875E0,-4.377285764E-2,9.779080003E-2,4.939281847E-3
3.275684375E0,-4.377285764E-2,9.779080003E-2,4.939281847E-3
3.280648437E0,-4.921828583E-2,1.059414819E-1,1.113520097E-2
3.285610937E0,-4.921828583E-2,1.059414819E-1,1.113520097E-2
3.290573437E0,-6.173229590E-2,1.994562298E-1,3.286454827E-2
3.295537500E0,-6.173229590E-2,1.994562298E-1,3.286454827E-2
3.300501562E0,-7.571238279E-2,2.444682717E-1,5.700245500E-2
3.305464062E0,-7.571238279E-2,2.444682717E-1,5.700245500E-2
3.310426562E0,-8.321730047E-2,2.428451180E-1,7.855726779E-2
3.315390625E0,-8.321730047E-2,2.428451180E-1,7.855726779E-2
3.320353125E0,-8.405505866E-2,2.531949282E-1,9.503317624E-2
3.325315625E0,-8.405505866E-2,2.531949282E-1,9.503317624E-2
3.330279687E0,-7.894124091E-2,2.513797581E-1,9.773843735E-2
3.335242187E0,-7.894124091E-2,2.513797581E-1,9.773843735E-2
3.340206250E0,-6.941174716E-2,2.228436321E-1,8.639379591E-2
3.345168750E0,-6.941174716E-2,2.228436321E-1,8.639379591E-2
3.350132812E0,-5.927138031E-2,1.928239763E-1,7.216936350E-2
3.355096875E0,-5.927138031E-2,1.928239763E-1,7.216936350E-2
3.360059375E0,-5.284857005E-2,1.558229923E-1,5.715953186E-2
3.365021875E0,-5.284857005E-2,1.558229923E-1,5.715953186E-2
3.369984375E0,-3.790855035E-2,9.039060026E-2,4.185299575E-2
3.374948437E0,-3.790855035E-2,9.039060026E-2,4.185299575E-2
3.379912500E0,-9.651671164E-3,-7.208209950E-3,2.776818909E-2
3.384875000E0,-9.651671164E-3,-7.208209950E-3,2.776818909E-2
3.389839062E0,2.797762863E-2,-1.342856288E-1,1.181587856E-2
3.394800000E0,2.797762863E-2,-1.342856288E-1,1.181587856E-2
3.399764062E0,6.087708473E-2,-2.246587873E-1,-5.044001620E-3
3.404726562E0,6.087708473E-2,-2.246587873E-1,-5.044001620E-3
3.409690625E0,7.391469181E-2,-2.421295196E-1,-1.764527895E-2
3.414653125E0,7.391469181E-2,-2.421295196E-1,-1.764527895E-2
3.419617187E0,7.155849785E-2,-1.967858672E-1,-2.261946723E-2
3.424579687E0,7.155849785E-2,-1.967858672E-1,-2.261946723E-2
3.429542187E0,6.578145921E-2,-1.581791937E-1,-2.415535599E-2
3.434506250E0,6.578145921E-2,-1.581791937E-1,-2.415535599E-2
3.439468750E0,5.953317881E-2,-1.183158681E-1,-2.176425606E-2
3.444432812E0,5.953317881E-2,-1.183158681E-1,-2.176425606E-2
3.449395312E0,5.181882530E-2,-5.864306167E-2,-1.839577034E-2
3.454359375E0,5.181882530E-2,-5.864306167E-2,-1.839577034E-2
3.459321875E0,4.459316283E-2,1.157153305E-2,-1.471312530E-2
3.464284375E0,4.459316283E-2,1.157153305E-2,-1.471312530E-2
3.469248437E0,3.960151970E-2,1.391027402E-2,-1.897172816E-2
3.474210937E0,3.960151970E-2,1.391027402E-2,-1.897172816E-2
3.479175000E0,3.269001842E-2,2.090904489E-2,-2.055997774E-2
3.484137500E0,3.269001842E-2,2.090904489E-2,-2.055997774E-2
3.489101562E0,2.164208330E-2,3.607595712E-2,-1.874483563E-2
3.494064062E0,2.164208330E-2,3.607595712E-2,-1.874483563E-2
3.499028125E0,1.066396199E-2,8.595746756E-2,-1.082104165E-2
3.503990625E0,1.066396199E-2,8.595746756E-2,-1.082104165E-2
3.508953125E0,2.094394993E-3,1.228886321E-1,-4.241149873E-3
3.513917187E0,2.094394993E-3,1.228886321E-1,-4.241149873E-3
3.518879687E0,-3.735004691E-3,1.262920201E-1,-1.518436475E-3
3.523843750E0,-3.735004691E-3,1.262920201E-1,-1.518436475E-3
3.528806250E0,-1.027998887E-2,1.480213702E-1,2.042035107E-3
3.533768750E0,-1.027998887E-2,1.480213702E-1,2.042035107E-3
3.538732812E0,-1.246165112E-2,1.977283508E-1,1.054178830E-2
3.543695312E0,-1.246165112E-2,1.977283508E-1,1.054178830E-2
3.548659375E0,-1.052433532E-2,2.273291349E-1,1.902408898E-2
3.553621875E0,-1.052433532E-2,2.273291349E-1,1.902408898E-2
3.558585937E0,-6.579891313E-3,2.264041156E-1,2.460914291E-2
3.563548437E0,-6.579891313E-3,2.264041156E-1,2.460914291E-2
3.568510937E0,-4.276056774E-3,1.850049049E-1,2.202605456E-2
3.573475000E0,-4.276056774E-3,1.850049049E-1,2.202605456E-2
3.578437500E0,-3.909537569E-3,1.939235330E-1,1.923352852E-2
3.583401562E0,-3.909537569E-3,1.939235330E-1,1.923352852E-2
3.588364062E0,-2.687806962E-3,1.799434423E-1,1.329940930E-2
3.593326562E0,-2.687806962E-3,1.799434423E-1,1.329940930E-2
3.598290625E0,1.832595677E-3,1.725607067E-1,1.027998887E-2
3.603253125E0,1.832595677E-3,1.725607067E-1,1.027998887E-2
3.608217187E0,1.291543618E-2,1.080882400E-1,4.188789986E-3
3.613179687E0,1.291543618E-2,1.080882400E-1,4.188789986E-3
3.618143750E0,2.715732343E-2,3.440044075E-2,-8.936085738E-3
3.623107812E0,2.715732343E-2,3.440044075E-2,-8.936085738E-3
3.628070312E0,3.703588620E-2,-4.783947393E-2,-2.829178795E-2
3.633032812E0,3.703588620E-2,-4.783947393E-2,-2.829178795E-2
3.637996875E0,4.089306295E-2,-8.916886896E-2,-4.138175771E-2
3.642959375E0,4.089306295E-2,-8.916886896E-2,-4.138175771E-2
3.647923437E0,4.297000542E-2,-1.502379477E-1,-4.488986731E-2
3.652885937E0,4.297000542E-2,-1.502379477E-1,-4.488986731E-2
3.657850000E0,3.991568089E-2,-1.485973299E-1,-3.659955412E-2
3.662812500E0,3.991568089E-2,-1.485973299E-1,-3.659955412E-2
3.667775000E0,3.225368261E-2,-8.929104358E-2,-2.366666496E-2
3.672739062E0,3.225368261E-2,-8.929104358E-2,-2.366666496E-2
3.677701562E0,2.181661502E-2,-4.853760451E-2,-1.593485661E-2
3.682664062E0,2.181661502E-2,-4.853760451E-2,-1.593485661E-2
3.687628125E0,1.322959550E-2,-2.446951531E-2,-9.686577134E-3
3.692592187E0,1.322959550E-2,-2.446951531E-2,-9.686577134E-3
3.697553125E0,1.157153305E-2,-1.954768784E-2,3.752457909E-3
3.702517187E0,1.157153305E-2,-1.954768784E-2,3.752457909E-3
3.707479687E0,-9.599310579E-4,7.871435024E-3,2.616248466E-2
3.712443750E0,-9.599310579E-4,7.871435024E-3,2.616248466E-2
3.717406250E0,-2.785545401E-2,6.536258012E-2,5.024803057E-2
3.722368750E0,-2.785545401E-2,6.536258012E-2,5.024803057E-2
3.727334375E0,-6.384414434E-2,1.319992542E-1,6.377433240E-2
3.732296875E0,-6.384414434E-2,1.319992542E-1,6.377433240E-2
3.737259375E0,-8.883725852E-2,1.655968428E-1,6.246533245E-2
3.742221875E0,-8.883725852E-2,1.655968428E-1,6.246533245E-2
3.747185937E0,-9.791296721E-2,1.624377966E-1,5.394812673E-2
3.752150000E0,-9.791296721E-2,1.624377966E-1,5.394812673E-2
3.757112500E0,-9.414306283E-2,1.333256960E-1,4.295255244E-2
3.762075000E0,-9.414306283E-2,1.333256960E-1,4.295255244E-2
3.767037500E0,-8.689994365E-2,9.953612834E-2,3.476695716E-2
3.772001562E0,-8.689994365E-2,9.953612834E-2,3.476695716E-2
3.776964062E0,-8.000589162E-2,5.159193277E-2,2.785545401E-2
3.781928125E0,-8.000589162E-2,5.159193277E-2,2.785545401E-2
3.786890625E0,-7.325147092E-2,5.448918045E-2,2.569124661E-2
3.791854687E0,-7.325147092E-2,5.448918045E-2,2.569124661E-2
3.796817187E0,-6.606071442E-2,2.499311417E-2,2.145009674E-2
3.801779687E0,-6.606071442E-2,2.499311417E-2,2.145009674E-2
3.806743750E0,-5.967280641E-2,-9.128072299E-3,1.762782596E-2
3.811707812E0,-5.967280641E-2,-9.128072299E-3,1.762782596E-2
3.816670312E0,-5.429719388E-2,-7.960446924E-2,1.469567232E-2
3.821632812E0,-5.429719388E-2,-7.960446924E-2,1.469567232E-2
3.826596875E0,-4.954989627E-2,-7.761479169E-2,2.371902391E-2
3.831559375E0,-4.954989627E-2,-7.761479169E-2,2.371902391E-2
3.836521875E0,-4.525638744E-2,-6.352998316E-2,3.918264061E-2
3.841485937E0,-4.525638744E-2,-6.352998316E-2,3.918264061E-2
3.846448437E0,-4.169591516E-2,-9.580112249E-2,4.794419557E-2
3.851412500E0,-4.169591516E-2,-9.580112249E-2,4.794419557E-2
3.856375000E0,-3.914773464E-2,-1.203055456E-1,5.249950290E-2
3.861337500E0,-3.914773464E-2,-1.203055456E-1,5.249950290E-2
3.866301562E0,-3.675663471E-2,-1.497841626E-1,4.879940674E-2
3.871264062E0,-3.675663471E-2,-1.497841626E-1,4.879940674E-2
3.876228125E0,-3.546509147E-2,-1.688605994E-1,3.855432197E-2
3.881190625E0,-3.546509147E-2,-1.688605994E-1,3.855432197E-2
3.886153125E0,-3.443534672E-2,-1.325403005E-1,3.274237737E-2
3.891117187E0,-3.443534672E-2,-1.325403005E-1,3.274237737E-2
3.896079687E0,-3.221877664E-2,-1.145808622E-1,2.761110850E-2
3.901043750E0,-3.221877664E-2,-1.145808622E-1,2.761110850E-2
3.906006250E0,-3.125884756E-2,-1.085245758E-1,2.361430414E-2
3.910970312E0,-3.125884756E-2,-1.085245758E-1,2.361430414E-2
3.915932812E0,-2.961823717E-2,-1.160120368E-1,1.933824830E-2
3.920895312E0,-2.961823717E-2,-1.160120368E-1,1.933824830E-2
3.925859375E0,-2.583087236E-2,-1.147030368E-1,1.684242673E-2
3.930821875E0,-2.583087236E-2,-1.147030368E-1,1.684242673E-2
3.935785937E0,-2.261946723E-2,-1.114218161E-1,1.556833647E-2
3.940748437E0,-2.261946723E-2,-1.114218161E-1,1.556833647E-2
3.945712500E0,-1.968731359E-2,-9.377653897E-2,1.577777602E-2
3.950695312E0,-1.968731359E-2,-9.377653897E-2,1.577777602E-2
3.955637500E0,-1.769763790E-2,-7.860963047E-2,1.682497375E-2
3.960601562E0,-1.769763790E-2,-7.860963047E-2,1.682497375E-2
3.965564062E0,-1.644100063E-2,-5.185373127E-2,2.469640970E-2
3.970528125E0,-1.644100063E-2,-5.185373127E-2,2.469640970E-2
3.975490625E0,-1.621410809E-2,-1.047197584E-4,4.082325101E-2
3.980454687E0,-1.621410809E-2,-1.047197584E-4,4.082325101E-2
3.985417187E0,-1.757546514E-2,4.696680978E-2,5.614724010E-2
3.990379687E0,-1.757546514E-2,4.696680978E-2,5.614724010E-2
3.995343750E0,-2.075196430E-2,8.398524672E-2,6.564183533E-2
4.000306250E0,-2.075196430E-2,8.398524672E-2,6.564183533E-2
4.005270312E0,-2.933898382E-2,9.728465229E-2,6.419321150E-2
4.010232812E0,-2.933898382E-2,9.728465229E-2,6.419321150E-2
4.015196875E0,-3.893829510E-2,8.026769012E-2,5.490805954E-2
4.020159375E0,-3.893829510E-2,8.026769012E-2,5.490805954E-2
4.025123437E0,-4.221951589E-2,5.700245500E-2,4.401720315E-2
4.030085937E0,-4.221951589E-2,5.700245500E-2,4.401720315E-2
4.035048437E0,-3.717551380E-2,-2.809980139E-2,2.984512970E-2
4.040012500E0,-3.717551380E-2,-2.809980139E-2,2.984512970E-2
4.044975000E0,-3.001966327E-2,-8.194320649E-2,1.975712739E-2
4.049939062E0,-3.001966327E-2,-8.194320649E-2,1.975712739E-2
4.054901562E0,-2.352703735E-2,-1.361007690E-1,6.946410518E-3
4.059865625E0,-2.352703735E-2,-1.361007690E-1,6.946410518E-3
4.064828125E0,-1.932079531E-2,-1.480213702E-1,-6.806784077E-4
4.069790625E0,-1.932079531E-2,-1.480213702E-1,-6.806784077E-4
4.074754687E0,-1.757546514E-2,-1.741489470E-1,-4.572762642E-3
4.079717187E0,-1.757546514E-2,-1.741489470E-1,-4.572762642E-3
4.084681250E0,-1.607448235E-2,-1.738871485E-1,-3.839724232E-3
4.089643750E0,-1.607448235E-2,-1.738871485E-1,-3.839724232E-3
4.094606250E0,-1.441641990E-2,-1.513200402E-1,-1.239183708E-3
4.099570312E0,-1.441641990E-2,-1.513200402E-1,-1.239183708E-3
4.104532812E0,-1.157153305E-2,-1.892111450E-1,-5.358160939E-3
4.109496875E0,-1.157153305E-2,-1.892111450E-1,-5.358160939E-3
4.114459375E0,-9.843656793E-3,-2.318495363E-1,-1.045452245E-2
4.119421875E0,-9.843656793E-3,-2.318495363E-1,-1.045452245E-2
4.124385937E0,-9.477137588E-3,-2.464579493E-1,-1.314232964E-2
4.129348437E0,-9.477137588E-3,-2.464579493E-1,-1.314232964E-2
4.134312500E0,-8.970992640E-3,-2.412568629E-1,-1.370083448E-2
4.139275000E0,-8.970992640E-3,-2.412568629E-1,-1.370083448E-2
4.144237500E0,-1.570796361E-3,-4.607669264E-2,-2.775073517E-3
4.149201562E0,-1.570796361E-3,-4.607669264E-2,-2.775073517E-3
4.154164062E0,-1.483529806E-3,-4.640830308E-2,-2.827433404E-3
4.159128125E0,-1.483529806E-3,-4.640830308E-2,-2.827433404E-3
4.164090625E0,-1.396263367E-3,-4.237659276E-2,-2.460914198E-3
4.169054687E0,-1.396263367E-3,-4.237659276E-2,-2.460914198E-3
4.174017187E0,-1.308996929E-3,-4.082325101E-2,-2.286381321E-3
4.178981250E0,-1.308996929E-3,-4.082325101E-2,-2.286381321E-3
4.183943750E0,-1.239183708E-3,-3.637266159E-2,-1.762782573E-3
4.188907812E0,-1.239183708E-3,-3.637266159E-2,-1.762782573E-3
4.193870312E0,-8.726646192E-4,-3.719296679E-2,-1.675516134E-3
4.198832812E0,-8.726646192E-4,-3.719296679E-2,-1.675516134E-3
4.203796875E0,1.047197584E-4,-4.171336815E-2,-1.448623254E-3
4.208759375E0,1.047197584E-4,-4.171336815E-2,-1.448623254E-3
4.213721875E0,1.012290944E-3,-4.173082113E-2,-1.919862116E-4
4.218685937E0,1.012290944E-3,-4.173082113E-2,-1.919862116E-4
4.223648437E0,1.117010717E-3,-4.092797264E-2,1.745329238E-3
4.228612500E0,1.117010717E-3,-4.092797264E-2,1.745329238E-3
4.233575000E0,3.036872949E-3,-2.083224952E-1,1.989675313E-2
4.238539062E0,3.036872949E-3,-2.083224952E-1,1.989675313E-2
4.243501562E0,6.981316983E-5,-2.107310593E-1,2.141519077E-2
4.248465625E0,6.981316983E-5,-2.107310593E-1,2.141519077E-2
4.253428125E0,-5.410520826E-4,-2.335948646E-1,1.694714651E-2
4.258390625E0,-5.410520826E-4,-2.335948646E-1,1.694714651E-2
4.263354687E0,-2.443460980E-3,-2.619041204E-1,1.101302728E-2
4.268317187E0,-2.443460980E-3,-2.619041204E-1,1.101302728E-2
4.273281250E0,-4.642575979E-3,-2.793050408E-1,6.841690745E-3
4.278243750E0,-4.642575979E-3,-2.793050408E-1,6.841690745E-3
4.283206250E0,-6.998770405E-3,-3.386462331E-1,1.745329209E-4
4.288168750E0,-6.998770405E-3,-3.386462331E-1,1.745329209E-4
4.293132812E0,-1.151917269E-3,-6.977826357E-2,-8.028514567E-4
4.298096875E0,-1.151917269E-3,-6.977826357E-2,-8.028514567E-4
4.303059375E0,-5.934119690E-4,-6.890559942E-2,-1.151917269E-3
4.308023437E0,-5.934119690E-4,-6.890559942E-2,-1.151917269E-3
4.312985937E0,-5.235987919E-5,-7.084291428E-2,-1.762782573E-3
4.317948437E0,-5.235987919E-5,-7.084291428E-2,-1.762782573E-3
4.322912500E0,8.726646192E-4,-3.772354722E-1,-1.183333248E-2
4.327875000E0,8.726646192E-4,-3.772354722E-1,-1.183333248E-2
4.332837500E0,2.181661548E-3,-3.309842348E-1,-1.523672417E-2
4.337801562E0,2.181661548E-3,-3.309842348E-1,-1.523672417E-2
4.342764062E0,6.405358203E-3,-3.185400367E-1,-2.398082428E-2
4.347726562E0,6.405358203E-3,-3.185400367E-1,-2.398082428E-2
4.352690625E0,1.031489577E-2,-3.129549921E-1,-3.314380348E-2
4.357653125E0,1.031489577E-2,-3.129549921E-1,-3.314380348E-2
4.362617187E0,1.225221157E-2,-2.864434421E-1,-3.686135262E-2
4.367579687E0,1.225221157E-2,-2.864434421E-1,-3.686135262E-2
4.372543750E0,1.415462047E-2,-2.507340014E-1,-3.127630055E-2
4.377506250E0,1.415462047E-2,-2.507340014E-1,-3.127630055E-2
4.382470312E0,1.649336144E-2,-2.272942215E-1,-2.394591644E-2
4.387432812E0,1.649336144E-2,-2.272942215E-1,-2.394591644E-2
4.392395312E0,1.946042106E-2,-2.042384297E-1,-1.774999872E-2
4.397359375E0,1.946042106E-2,-2.042384297E-1,-1.774999872E-2
4.402323437E0,2.216568217E-2,-1.670978218E-1,-1.211258490E-2
4.407285937E0,2.216568217E-2,-1.670978218E-1,-1.211258490E-2
4.412248437E0,2.082177810E-2,-1.391900033E-1,-9.546951391E-3
4.417210937E0,2.082177810E-2,-1.391900033E-1,-9.546951391E-3
4.422175000E0,1.727875881E-2,-1.056447774E-1,-6.684611086E-3
4.427137500E0,1.727875881E-2,-1.056447774E-1,-6.684611086E-3
4.432101562E0,1.511455141E-2,-1.023461074E-1,-7.190756500E-3
4.437064062E0,1.511455141E-2,-1.023461074E-1,-7.190756500E-3
4.442028125E0,1.389282104E-2,-9.241518378E-2,-6.824237294E-3
4.446990625E0,1.389282104E-2,-9.241518378E-2,-6.824237294E-3
4.451953125E0,1.279326342E-2,-9.751154482E-2,-8.482299745E-3
4.456917187E0,1.279326342E-2,-9.751154482E-2,-8.482299745E-3
4.461879687E0,1.139700040E-2,-1.006531343E-1,-1.150172018E-2
4.466843750E0,1.139700040E-2,-1.006531343E-1,-1.150172018E-2
4.471806250E0,9.407324716E-3,-9.138543904E-2,-1.394518092E-2
4.476768750E0,9.407324716E-3,-9.138543904E-2,-1.394518092E-2
4.481732812E0,4.904375412E-3,-7.986626774E-2,-1.670280099E-2
4.486695312E0,4.904375412E-3,-7.986626774E-2,-1.670280099E-2
4.491659375E0,3.490658492E-5,-6.761405617E-2,-2.108357660E-2
4.496621875E0,3.490658492E-5,-6.761405617E-2,-2.108357660E-2
4.501585937E0,-3.106686054E-3,-5.878268927E-2,-2.371902391E-2
4.506548437E0,-3.106686054E-3,-5.878268927E-2,-2.371902391E-2
4.511512500E0,-9.686577134E-3,-4.832816496E-2,-2.417281084E-2
4.516476562E0,-9.686577134E-3,-4.832816496E-2,-2.417281084E-2
4.521437500E0,-2.082177810E-2,-4.345869645E-2,-2.389355749E-2
4.526401562E0,-2.082177810E-2,-4.345869645E-2,-2.389355749E-2
4.531365625E0,-3.155555204E-2,-7.288494706E-2,-2.665117756E-2
4.536328125E0,-3.155555204E-2,-7.288494706E-2,-2.665117756E-2
4.541290625E0,-6.562437862E-3,-1.987930015E-2,-5.707226694E-3
4.546253125E0,-6.562437862E-3,-1.987930015E-2,-5.707226694E-3
4.551218750E0,-6.230825558E-3,-3.028146178E-2,-7.190756500E-3
4.556179687E0,-6.230825558E-3,-3.028146178E-2,-7.190756500E-3
4.561143750E0,-5.899212789E-3,-4.349360615E-2,-8.813912980E-3
4.566106250E0,-5.899212789E-3,-4.349360615E-2,-8.813912980E-3
4.571070312E0,-5.567600485E-3,-5.078908056E-2,-1.010545623E-2
4.576032812E0,-5.567600485E-3,-5.078908056E-2,-1.010545623E-2
4.580995312E0,-5.410520826E-3,-5.298819765E-2,-1.115265395E-2
4.585959375E0,-5.410520826E-3,-5.298819765E-2,-1.115265395E-2
4.590921875E0,-5.166174378E-3,-5.293583497E-2,-1.275835652E-2
4.595885937E0,-5.166174378E-3,-5.293583497E-2,-1.275835652E-2
4.600848437E0,-4.904375412E-3,-5.108578876E-2,-1.490511186E-2
4.605812500E0,-4.904375412E-3,-5.108578876E-2,-1.490511186E-2
4.610775000E0,-4.694935866E-3,-5.612978712E-2,-1.764527895E-2
4.615737500E0,-4.694935866E-3,-5.612978712E-2,-1.764527895E-2
4.620701562E0,-4.433136433E-3,-5.836381018E-2,-1.909390278E-2
4.625664062E0,-4.433136433E-3,-5.836381018E-2,-1.909390278E-2
4.630628125E0,-4.310963210E-3,-6.337290257E-2,-1.960004680E-2
4.635590625E0,-4.310963210E-3,-6.337290257E-2,-1.960004680E-2
4.640554687E0,-4.223696887E-3,-6.909758598E-2,-1.933824830E-2
4.645517187E0,-4.223696887E-3,-6.909758598E-2,-1.933824830E-2
4.650479687E0,-4.188789986E-3,-7.559020817E-2,-1.893682219E-2
4.655443750E0,-4.188789986E-3,-7.559020817E-2,-1.893682219E-2
4.660407812E0,-4.153883550E-3,-8.114035428E-2,-1.890191622E-2
4.665370312E0,-4.153883550E-3,-8.114035428E-2,-1.890191622E-2
4.670332812E0,-4.153883550E-3,-9.138543904E-2,-1.947787404E-2
4.675295312E0,-4.153883550E-3,-9.138543904E-2,-1.947787404E-2
4.680259375E0,-4.241149873E-3,-1.049117446E-1,-1.996656694E-2
4.685221875E0,-4.241149873E-3,-1.049117446E-1,-1.996656694E-2
4.690185937E0,-4.590216093E-3,-1.157327816E-1,-2.050761878E-2
4.695148437E0,-4.590216093E-3,-1.157327816E-1,-2.050761878E-2
4.700112500E0,-5.340707488E-3,-1.164483652E-1,-2.049016580E-2
4.705075000E0,-5.340707488E-3,-1.164483652E-1,-2.049016580E-2
4.710037500E0,-6.283185445E-3,-1.231678873E-1,-2.129301615E-2
4.715001562E0,-6.283185445E-3,-1.231678873E-1,-2.129301615E-2
4.719964062E0,-7.295476273E-3,-1.272694021E-1,-2.186897583E-2
4.724928125E0,-7.295476273E-3,-1.272694021E-1,-2.186897583E-2
4.729890625E0,-7.557275705E-3,-1.305331737E-1,-2.211332135E-2
4.734854687E0,-7.557275705E-3,-1.305331737E-1,-2.211332135E-2
4.739817187E0,-7.470009383E-3,-1.397136003E-1,-2.281145379E-2
4.744781250E0,-7.470009383E-3,-1.397136003E-1,-2.281145379E-2
4.749743750E0,-7.417649496E-3,-1.512676924E-1,-2.370157093E-2
4.754706250E0,-7.417649496E-3,-1.512676924E-1,-2.370157093E-2
4.759670312E0,-7.400196046E-3,-1.630835682E-1,-2.452187613E-2
4.764632812E0,-7.400196046E-3,-1.630835682E-1,-2.452187613E-2
4.769596875E0,-7.120943163E-3,-1.654921174E-1,-2.427753061E-2
4.774559375E0,-7.120943163E-3,-1.654921174E-1,-2.427753061E-2
4.779521875E0,-6.946410518E-3,-1.712866127E-1,-2.392846346E-2
4.784485937E0,-6.946410518E-3,-1.712866127E-1,-2.392846346E-2
4.789448437E0,-6.928957067E-3,-1.857379377E-1,-2.385865152E-2
4.794412500E0,-6.928957067E-3,-1.857379377E-1,-2.385865152E-2
4.799375000E0,-7.051130291E-3,-1.933475733E-1,-2.277654596E-2
4.804339062E0,-7.051130291E-3,-1.933475733E-1,-2.277654596E-2
4.809301562E0,-3.712315485E-2,-1.021471381E0,-1.117010713E-1
4.814264062E0,-3.712315485E-2,-1.021471381E0,-1.117010713E-1
4.819229687E0,-3.640756756E-2,-9.350601435E-1,-9.543460608E-2
4.824192187E0,-3.640756756E-2,-9.350601435E-1,-9.543460608E-2
4.829154687E0,-3.614576906E-2,-8.894895911E-1,-8.606218547E-2
4.834117187E0,-3.614576906E-2,-8.894895911E-1,-8.606218547E-2
4.839081250E0,-3.560471535E-2,-8.472875357E-1,-7.934267074E-2
4.844043750E0,-3.560471535E-2,-8.472875357E-1,-7.934267074E-2
4.849006250E0,-3.303908184E-2,-7.739313245E-1,-7.017968595E-2
4.853970312E0,-3.303908184E-2,-7.739313245E-1,-7.017968595E-2
4.858932812E0,-3.050835431E-2,-6.940476298E-1,-6.218608096E-2
4.863896875E0,-3.050835431E-2,-6.940476298E-1,-6.218608096E-2
4.868859375E0,-2.895501256E-2,-6.318964362E-1,-5.668829381E-2
4.873823437E0,-2.895501256E-2,-6.318964362E-1,-5.668829381E-2
4.878785937E0,-2.506292798E-2,-5.801997781E-1,-5.274384841E-2
4.883748437E0,-2.506292798E-2,-5.801997781E-1,-5.274384841E-2
4.888712500E0,-2.090904489E-2,-5.608266592E-1,-5.152212083E-2
4.893675000E0,-2.090904489E-2,-5.608266592E-1,-5.152212083E-2
4.898639062E0,-1.884955540E-2,-5.677905083E-1,-5.283111706E-2
4.903601562E0,-1.884955540E-2,-5.677905083E-1,-5.283111706E-2
4.908565625E0,-1.345648803E-2,-5.783846378E-1,-5.420992523E-2
4.913528125E0,-1.345648803E-2,-5.783846378E-1,-5.420992523E-2
4.918490625E0,-3.874630900E-3,-5.474399924E-1,-5.122541264E-2
4.923454687E0,-3.874630900E-3,-5.474399924E-1,-5.122541264E-2
4.928417187E0,2.338741207E-3,-5.316447616E-1,-5.031784251E-2
4.933381250E0,2.338741207E-3,-5.316447616E-1,-5.031784251E-2
4.938343750E0,3.525565146E-3,-5.227435827E-1,-5.071926862E-2
4.943332812E0,3.525565146E-3,-5.227435827E-1,-5.071926862E-2
4.948270312E0,1.710422686E-3,-4.801749885E-1,-4.728097096E-2
4.953232812E0,1.710422686E-3,-4.801749885E-1,-4.728097096E-2
4.958196875E0,-1.117010717E-3,-4.351803958E-1,-4.220206290E-2
4.963159375E0,-1.117010717E-3,-4.351803958E-1,-4.220206290E-2
4.968123437E0,-3.054326167E-3,-3.835884631E-1,-3.611086309E-2
4.973085937E0,-3.054326167E-3,-3.835884631E-1,-3.611086309E-2
4.978048437E0,-4.153883550E-3,-3.643374741E-1,-3.385938704E-2
4.983012500E0,-4.153883550E-3,-3.643374741E-1,-3.385938704E-2
4.987975000E0,-5.305801053E-3,-3.429746628E-1,-3.043854237E-2
4.992939062E0,-5.305801053E-3,-3.429746628E-1,-3.043854237E-2
4.997901562E0,-1.096066739E-2,-3.071255982E-1,-2.286381274E-2
5.002865625E0,-1.096066739E-2,-3.071255982E-1,-2.286381274E-2
5.007828125E0,-1.928588748E-2,-2.792003155E-1,-1.284562331E-2
5.012790625E0,-1.928588748E-2,-2.792003155E-1,-1.284562331E-2
5.017754687E0,-2.487094142E-2,-2.618168294E-1,-3.176499158E-3
5.022717187E0,-2.487094142E-2,-2.618168294E-1,-3.176499158E-3
5.027681250E0,-2.602285892E-2,-2.588497698E-1,-6.457717973E-4
5.032643750E0,-2.602285892E-2,-2.588497698E-1,-6.457717973E-4
5.037607812E0,-2.401573025E-2,-2.728996873E-1,-6.108652335E-3
5.042570312E0,-2.401573025E-2,-2.728996873E-1,-6.108652335E-3
5.047532812E0,-2.179916203E-2,-3.056246042E-1,-1.404990070E-2
5.052496875E0,-2.179916203E-2,-3.056246042E-1,-1.404990070E-2
5.057459375E0,-1.977458037E-2,-3.338640332E-1,-1.972221956E-2
5.062423437E0,-1.977458037E-2,-3.338640332E-1,-1.972221956E-2
5.067385937E0,-1.916371472E-2,-3.239680231E-1,-2.031563222E-2
5.072350000E0,-1.916371472E-2,-3.239680231E-1,-2.031563222E-2
5.077312500E0,-1.790707745E-2,-2.921506763E-1,-2.153736353E-2
5.082276562E0,-1.790707745E-2,-2.921506763E-1,-2.153736353E-2
5.087239062E0,-1.612684131E-2,-2.945243120E-1,-3.001966327E-2
5.092201562E0,-1.612684131E-2,-2.945243120E-1,-3.001966327E-2
5.097165625E0,-1.347394194E-2,-2.977357209E-1,-4.323180392E-2
5.102128125E0,-1.347394194E-2,-2.977357209E-1,-4.323180392E-2
5.107092187E0,-1.120501384E-2,-2.788861692E-1,-5.522221699E-2
5.112054687E0,-1.120501384E-2,-2.788861692E-1,-5.522221699E-2
5.117017187E0,-7.278022822E-3,-2.972993851E-1,-6.585127115E-2
5.121981250E0,-7.278022822E-3,-2.972993851E-1,-6.585127115E-2
5.126943750E0,-7.155850180E-4,-3.166376352E-1,-7.506661117E-2
5.131907812E0,-7.155850180E-4,-3.166376352E-1,-7.506661117E-2
5.136870312E0,8.447393775E-3,-3.642676771E-1,-8.766788989E-2
5.141832812E0,8.447393775E-3,-3.642676771E-1,-8.766788989E-2
5.146796875E0,2.214822732E-2,-3.892782331E-1,-9.749408811E-2
5.151759375E0,2.214822732E-2,-3.892782331E-1,-9.749408811E-2
5.156723437E0,3.864159063E-2,-3.859795630E-1,-1.031140536E-1
5.161685937E0,3.864159063E-2,-3.859795630E-1,-1.031140536E-1
5.166650000E0,5.117305368E-2,-3.870965838E-1,-1.074773744E-1
5.171612500E0,5.117305368E-2,-3.870965838E-1,-1.074773744E-1
5.176575000E0,5.602506921E-2,-3.936764598E-1,-1.085420251E-1
5.181539062E0,5.602506921E-2,-3.936764598E-1,-1.085420251E-1
5.186501562E0,5.501277745E-2,-3.658210039E-1,-1.029220670E-1
5.191465625E0,5.501277745E-2,-3.658210039E-1,-1.029220670E-1
5.196428125E0,4.764748737E-2,-3.330611885E-1,-9.386380762E-2
5.201392187E0,4.764748737E-2,-3.330611885E-1,-9.386380762E-2
5.206354687E0,3.752457723E-2,-2.888519764E-1,-8.094836771E-2
5.211317187E0,3.752457723E-2,-2.888519764E-1,-8.094836771E-2
5.216281250E0,2.738421597E-2,-2.515892088E-1,-6.852162629E-2
5.221243750E0,2.738421597E-2,-2.515892088E-1,-6.852162629E-2
5.226207812E0,2.171189524E-2,-2.129825205E-1,-5.747369304E-2
5.231170312E0,2.171189524E-2,-2.129825205E-1,-5.747369304E-2
5.236134375E0,1.462585945E-2,-1.912706345E-1,-5.115560070E-2
5.241096875E0,1.462585945E-2,-1.912706345E-1,-5.115560070E-2
5.246059375E0,3.420845373E-3,-1.579348445E-1,-4.031710699E-2
5.251023437E0,3.420845373E-3,-1.579348445E-1,-4.031710699E-2
5.255985937E0,-5.183627829E-3,-1.281246245E-1,-2.417281084E-2
5.260950000E0,-5.183627829E-3,-1.281246245E-1,-2.417281084E-2
5.265912500E0,-7.696901914E-3,-1.061160192E-1,-6.213372108E-3
5.270875000E0,-7.696901914E-3,-1.061160192E-1,-6.213372108E-3
5.275839062E0,-6.841690745E-3,-1.036201939E-1,4.642575979E-3
5.280801562E0,-6.841690745E-3,-1.036201939E-1,4.642575979E-3
5.285765625E0,-5.340707488E-3,-1.270948797E-1,1.902408898E-3
5.290728125E0,-5.340707488E-3,-1.270948797E-1,1.902408898E-3
5.295692187E0,-3.438298590E-3,-1.390852928E-1,-5.811946467E-3
5.300654687E0,-3.438298590E-3,-1.390852928E-1,-5.811946467E-3
5.305618750E0,-2.565633971E-3,-1.554913819E-1,-1.415462047E-2
5.310581250E0,-2.565633971E-3,-1.554913819E-1,-1.415462047E-2
5.315543750E0,4.188789986E-3,-1.559975296E-1,-1.982693933E-2
5.320507812E0,4.188789986E-3,-1.559975296E-1,-1.982693933E-2
5.325470312E0,1.555088349E-2,-1.918465942E-1,-2.413790300E-2
5.330432812E0,1.555088349E-2,-1.918465942E-1,-2.413790300E-2
5.335396875E0,2.590068616E-2,-2.037148327E-1,-3.164282069E-2
5.340359375E0,2.590068616E-2,-2.037148327E-1,-3.164282069E-2
5.345323437E0,3.110176697E-2,-2.191435397E-1,-4.787437990E-2
5.350285937E0,3.110176697E-2,-2.191435397E-1,-4.787437990E-2
5.355250000E0,3.218387067E-2,-2.114466429E-1,-6.003932655E-2
5.360212500E0,3.218387067E-2,-2.114466429E-1,-6.003932655E-2
5.365175000E0,3.209660575E-2,-1.987929940E-1,-6.014404446E-2
5.370139062E0,3.209660575E-2,-1.987929940E-1,-6.014404446E-2
5.375101562E0,3.199188411E-2,-1.834690124E-1,-5.380849913E-2
5.380065625E0,3.199188411E-2,-1.834690124E-1,-5.380849913E-2
5.385028125E0,3.200933710E-2,-1.646019965E-1,-4.609414563E-2
5.389992187E0,3.200933710E-2,-1.646019965E-1,-4.609414563E-2
5.394954687E0,2.974040993E-2,-1.647067219E-1,-4.181808978E-2
5.399918750E0,2.974040993E-2,-1.647067219E-1,-4.181808978E-2
5.404881250E0,2.600540593E-2,-1.735031754E-1,-3.956661373E-2
5.409843750E0,2.600540593E-2,-1.735031754E-1,-3.956661373E-2
5.414807812E0,2.246238664E-2,-1.653175801E-1,-3.637266159E-2
5.419770312E0,2.246238664E-2,-1.653175801E-1,-3.637266159E-2
5.424734375E0,2.015855350E-2,-1.640958488E-1,-3.391174600E-2
5.429696875E0,2.015855350E-2,-1.640958488E-1,-3.391174600E-2
5.434660937E0,1.813396998E-2,-1.418778151E-1,-2.939134464E-2
5.439623437E0,1.813396998E-2,-1.418778151E-1,-2.939134464E-2
5.444585937E0,1.638864167E-2,-1.365196556E-1,-2.307325229E-2
5.449550000E0,1.638864167E-2,-1.365196556E-1,-2.307325229E-2
5.454512500E0,1.464331243E-2,-1.241627261E-1,-1.200786512E-2
5.459476562E0,1.464331243E-2,-1.241627261E-1,-1.200786512E-2
5.464439062E0,1.155408006E-2,-1.162389293E-1,2.059488557E-3
5.469401562E0,1.155408006E-2,-1.162389293E-1,2.059488557E-3
5.474365625E0,5.829399452E-3,-7.820820063E-2,2.138028294E-2
5.479328125E0,5.829399452E-3,-7.820820063E-2,2.138028294E-2
5.484292187E0,8.726646047E-5,-6.923720986E-2,4.056145251E-2
5.489254687E0,8.726646047E-5,-6.923720986E-2,4.056145251E-2
5.494218750E0,-3.124139272E-3,-2.111848444E-2,6.309365481E-2
5.499181250E0,-3.124139272E-3,-2.111848444E-2,6.309365481E-2
5.504143750E0,-5.759586580E-3,-1.631882787E-2,7.805112749E-2
5.509107812E0,-5.759586580E-3,-1.631882787E-2,7.805112749E-2
5.514070312E0,-1.113520097E-2,-2.556907386E-2,8.358381689E-2
5.519034375E0,-1.113520097E-2,-2.556907386E-2,8.358381689E-2
5.523996875E0,-2.059488557E-2,-4.448844120E-2,7.937757671E-2
5.528959375E0,-2.059488557E-2,-4.448844120E-2,7.937757671E-2
5.533923437E0,-2.965314314E-2,-6.792821735E-2,7.000515610E-2
5.538885937E0,-2.965314314E-2,-6.792821735E-2,7.000515610E-2
5.543850000E0,-3.234095126E-2,-1.096066758E-1,5.672319978E-2
5.548812500E0,-3.234095126E-2,-1.096066758E-1,5.672319978E-2
5.553775000E0,-2.829178795E-2,-1.513724029E-1,4.386012256E-2
5.558739062E0,-2.829178795E-2,-1.513724029E-1,4.386012256E-2
5.563701562E0,-2.422516979E-2,-1.693318486E-1,3.466223925E-2
5.568665625E0,-2.422516979E-2,-1.693318486E-1,3.466223925E-2
5.573628125E0,-2.113593742E-2,-1.492605507E-1,3.096214123E-2
5.578592187E0,-2.113593742E-2,-1.492605507E-1,3.096214123E-2
5.583554687E0,-1.740093343E-2,-1.350012124E-1,2.179916203E-2
5.588517187E0,-1.740093343E-2,-1.350012124E-1,2.179916203E-2
5.593481250E0,-1.281071641E-2,-1.706233919E-1,1.448623254E-3
5.598443750E0,-1.281071641E-2,-1.706233919E-1,1.448623254E-3
5.603407812E0,-9.983283468E-3,-2.147278637E-1,-2.265437320E-2
5.608370312E0,-9.983283468E-3,-2.147278637E-1,-2.265437320E-2
5.613334375E0,-6.684611086E-3,-2.237512022E-1,-3.827507049E-2
5.618296875E0,-6.684611086E-3,-2.237512022E-1,-3.827507049E-2
5.623259375E0,-1.972222002E-3,-2.331410795E-1,-4.543092102E-2
5.628223437E0,-1.972222002E-3,-2.331410795E-1,-4.543092102E-2
5.633185937E0,-1.745329246E-5,-2.195100635E-1,-3.996803984E-2
5.638150000E0,-1.745329246E-5,-2.195100635E-1,-3.996803984E-2
5.643112500E0,-7.155850180E-4,-1.989326328E-1,-3.113667294E-2
5.648075000E0,-7.155850180E-4,-1.989326328E-1,-3.113667294E-2
5.653039062E0,-3.490658477E-3,-1.885479242E-1,-2.441715635E-2
5.658001562E0,-3.490658477E-3,-1.885479242E-1,-2.441715635E-2
5.662965625E0,-6.161012221E-3,-1.938013583E-1,-2.424262278E-2
5.667928125E0,-6.161012221E-3,-1.938013583E-1,-2.424262278E-2
5.672890625E0,-7.522369269E-3,-2.055299729E-1,-1.583013684E-2
5.677854687E0,-7.522369269E-3,-2.055299729E-1,-1.583013684E-2
5.682817187E0,-8.237954229E-3,-1.917942315E-1,4.956734832E-3
5.687781250E0,-8.237954229E-3,-1.917942315E-1,4.956734832E-3
5.692745312E0,-1.305506285E-2,-1.704837680E-1,3.019419685E-2
5.697706250E0,-1.305506285E-2,-1.704837680E-1,3.019419685E-2
5.702671875E0,-2.103121765E-2,-1.842020452E-1,4.576253146E-2
5.707632812E0,-2.103121765E-2,-1.842020452E-1,4.576253146E-2
5.712596875E0,-2.443460934E-2,-2.025803626E-1,5.148721114E-2
5.717559375E0,-2.443460934E-2,-2.025803626E-1,5.148721114E-2
5.722523437E0,-2.035053819E-2,-2.129301727E-1,5.106833205E-2
5.727485937E0,-2.035053819E-2,-2.129301727E-1,5.106833205E-2
5.732448437E0,-1.565560326E-2,-2.473480552E-1,4.380776361E-2
5.737412500E0,-1.565560326E-2,-2.473480552E-1,4.380776361E-2
5.742376562E0,-1.333431527E-2,-2.493551821E-1,3.569198400E-2
5.747339062E0,-1.333431527E-2,-2.493551821E-1,3.569198400E-2
5.752301562E0,-1.048942842E-2,-2.795144916E-1,2.326523885E-2
5.757264062E0,-1.048942842E-2,-2.795144916E-1,2.326523885E-2
5.762228125E0,-3.490658477E-3,-2.922553718E-1,1.345648803E-2
5.767192187E0,-3.490658477E-3,-2.922553718E-1,1.345648803E-2
5.772154687E0,5.602506921E-3,-2.711194456E-1,1.052433532E-2
5.777117187E0,5.602506921E-3,-2.711194456E-1,1.052433532E-2
5.782081250E0,1.343903504E-2,-2.764601409E-1,8.377580671E-4
5.787045312E0,1.343903504E-2,-2.764601409E-1,8.377580671E-4
5.792007812E0,1.963495463E-2,-2.927091718E-1,-1.644100063E-2
5.796970312E0,1.963495463E-2,-2.927091718E-1,-1.644100063E-2
5.801932812E0,2.277654596E-2,-3.019070625E-1,-3.577924892E-2
5.806896875E0,2.277654596E-2,-3.019070625E-1,-3.577924892E-2
5.811859375E0,2.110103145E-2,-3.159744143E-1,-5.398303270E-2
5.816823437E0,2.110103145E-2,-3.159744143E-1,-5.398303270E-2
5.821785937E0,1.919862255E-2,-3.308969736E-1,-6.784094870E-2
5.826750000E0,1.919862255E-2,-3.308969736E-1,-6.784094870E-2
5.831714062E0,1.816887781E-2,-3.399377763E-1,-7.721336931E-2
5.836675000E0,1.816887781E-2,-3.399377763E-1,-7.721336931E-2
5.841639062E0,1.829105057E-2,-3.339861929E-1,-7.916813344E-2
5.846603125E0,1.829105057E-2,-3.339861929E-1,-7.916813344E-2
5.851565625E0,2.110103145E-2,-3.118554354E-1,-7.557275891E-2
5.856528125E0,2.110103145E-2,-3.118554354E-1,-7.557275891E-2
5.861490625E0,2.764601447E-2,-3.021164834E-1,-6.991788745E-2
5.866454687E0,2.764601447E-2,-3.021164834E-1,-6.991788745E-2
5.871417187E0,3.570943698E-2,-2.887123525E-1,-6.359979510E-2
5.876381250E0,3.570943698E-2,-2.887123525E-1,-6.359979510E-2
5.881343750E0,4.323180392E-2,-2.798635364E-1,-5.756095797E-2
5.886307812E0,4.323180392E-2,-2.798635364E-1,-5.756095797E-2
5.891270312E0,4.975933582E-2,-2.918016016E-1,-5.372123420E-2
5.896232812E0,4.975933582E-2,-2.918016016E-1,-5.372123420E-2
5.901196875E0,4.829325899E-2,-2.874731719E-1,-5.042256042E-2
5.906159375E0,4.829325899E-2,-2.874731719E-1,-5.042256042E-2
5.911123437E0,4.075343907E-2,-2.428276539E-1,-3.825761750E-2
5.916085937E0,4.075343907E-2,-2.428276539E-1,-3.825761750E-2
5.921050000E0,3.033382259E-2,-1.827534288E-1,-1.574287005E-2
5.926012500E0,3.033382259E-2,-1.827534288E-1,-1.574287005E-2
5.930975000E0,2.019345947E-2,-1.264316440E-1,1.333431527E-2
5.935939062E0,2.019345947E-2,-1.264316440E-1,1.333431527E-2
5.940903125E0,1.314232964E-2,-6.099925563E-2,4.239404574E-2
5.945867187E0,1.314232964E-2,-6.099925563E-2,4.239404574E-2
5.950828125E0,1.031489577E-2,-6.475171540E-3,6.227334589E-2
5.955792187E0,1.031489577E-2,-6.475171540E-3,6.227334589E-2
5.960754687E0,7.522369269E-3,2.684316412E-2,6.819001585E-2
5.965717187E0,7.522369269E-3,2.684316412E-2,6.819001585E-2
5.970681250E0,6.021386012E-3,5.771803856E-2,6.483898312E-2
5.975643750E0,6.021386012E-3,5.771803856E-2,6.483898312E-2
5.980607812E0,7.557275705E-3,6.365215778E-2,5.482079089E-2
5.985571875E0,7.557275705E-3,6.365215778E-2,5.482079089E-2
5.990534375E0,8.831365965E-3,6.710790843E-2,4.473278672E-2
5.995496875E0,8.831365965E-3,6.710790843E-2,4.473278672E-2
6.000459375E0,8.639379404E-3,5.382595211E-2,3.698352724E-2
6.005423437E0,8.639379404E-3,5.382595211E-2,3.698352724E-2
6.010385937E0,8.761553094E-3,3.530801088E-2,2.738421597E-2
6.015350000E0,8.761553094E-3,3.530801088E-2,2.738421597E-2
6.020312500E0,1.139700040E-2,2.450442314E-2,9.407324716E-3
6.025276562E0,1.139700040E-2,2.450442314E-2,9.407324716E-3
6.030239062E0,1.586504281E-2,1.134464052E-2,-1.120501384E-2
6.035201562E0,1.586504281E-2,1.134464052E-2,-1.120501384E-2
6.040165625E0,1.876228862E-2,-4.223696887E-3,-2.534218132E-2
6.045129687E0,1.876228862E-2,-4.223696887E-3,-2.534218132E-2
6.050092187E0,1.637118869E-2,-1.694714651E-2,-2.862340026E-2
6.055054687E0,1.637118869E-2,-1.694714651E-2,-2.862340026E-2
6.060018750E0,1.240929123E-2,-1.069886796E-2,-2.132792398E-2
6.064981250E0,1.240929123E-2,-1.069886796E-2,-2.132792398E-2
6.069943750E0,9.634217247E-3,-2.321287990E-3,-1.193805225E-2
6.074907812E0,9.634217247E-3,-2.321287990E-3,-1.193805225E-2
6.079871875E0,8.517206647E-3,-1.605702913E-3,-6.719517522E-3
6.084834375E0,8.517206647E-3,-1.605702913E-3,-6.719517522E-3
6.089796875E0,3.298672382E-3,-4.747295752E-3,-3.804817796E-3
6.094760937E0,3.298672382E-3,-4.747295752E-3,-3.804817796E-3
6.099723437E0,0.000000000E0,0.000000000E0,0.000000000E0
6.104685937E0,0.000000000E0,0.000000000E0,0.000000000E0
6.109650000E0,-6.981316837E-4,4.799655639E-3,2.530727303E-3
6.114612500E0,-6.981316837E-4,4.799655639E-3,2.530727303E-3
6.119576562E0,-1.623156248E-3,9.878563695E-3,4.607669078E-3
6.124539062E0,-1.623156248E-3,9.878563695E-3,4.607669078E-3
6.129501562E0,-1.378810150E-3,1.069886796E-2,5.358160939E-3
6.134465625E0,-1.378810150E-3,1.069886796E-2,5.358160939E-3
6.139428125E0,-8.203047328E-4,1.083849464E-2,5.044001620E-3
6.144392187E0,-8.203047328E-4,1.083849464E-2,5.044001620E-3
6.149354687E0,-6.457717973E-4,1.045452245E-2,4.363323096E-3
6.154318750E0,-6.457717973E-4,1.045452245E-2,4.363323096E-3
6.159281250E0,-1.221730490E-4,1.375319436E-2,4.118977115E-3
6.164243750E0,-1.221730490E-4,1.375319436E-2,4.118977115E-3
6.169207812E0,8.377580671E-4,1.715658605E-2,4.153883550E-3
6.174170312E0,8.377580671E-4,1.715658605E-2,4.153883550E-3
6.179134375E0,1.064650831E-3,2.675589733E-2,4.921828397E-3
6.184096875E0,1.064650831E-3,2.675589733E-2,4.921828397E-3
6.189060937E0,4.537856148E-4,3.298672289E-2,5.427973811E-3
6.194023437E0,4.537856148E-4,3.298672289E-2,5.427973811E-3
6.198985937E0,-3.665191471E-4,3.879866749E-2,5.969026126E-3
6.203950000E0,-3.665191471E-4,3.879866749E-2,5.969026126E-3
6.208912500E0,-8.203047328E-4,4.621632025E-2,6.719517522E-3
6.213876562E0,-8.203047328E-4,4.621632025E-2,6.719517522E-3
6.218839062E0,-8.552113432E-4,4.750786349E-2,6.806783844E-3
6.223803125E0,-8.552113432E-4,4.750786349E-2,6.806783844E-3
6.228765625E0,-1.169370604E-3,4.485496134E-2,6.544984877E-3
6.233728125E0,-1.169370604E-3,4.485496134E-2,6.544984877E-3
6.238692187E0,-1.064650831E-3,4.391248524E-2,6.405358203E-3
6.243654687E0,-1.064650831E-3,4.391248524E-2,6.405358203E-3
6.248618750E0,-6.806784077E-4,4.211479425E-2,6.108652335E-3
6.253581250E0,-6.806784077E-4,4.211479425E-2,6.108652335E-3
6.258545312E0,1.570796303E-4,3.895574808E-2,5.672320258E-3
6.263507812E0,1.570796303E-4,3.895574808E-2,5.672320258E-3
6.268470312E0,6.981316837E-4,3.438298777E-2,4.520402756E-3
6.273434375E0,6.981316837E-4,3.438298777E-2,4.520402756E-3
6.278398437E0,7.330382941E-4,2.958333120E-2,2.740166849E-3
6.283360937E0,7.330382941E-4,2.958333120E-2,2.740166849E-3
6.288323437E0,1.012290944E-3,2.131047100E-2,5.410520826E-4
6.293287500E0,1.012290944E-3,2.131047100E-2,5.410520826E-4
6.298251562E0,1.710422686E-3,1.705186628E-2,-5.934119690E-4
6.303214062E0,1.710422686E-3,1.705186628E-2,-5.934119690E-4
6.308176562E0,3.124139272E-3,1.253146399E-2,-6.806784077E-4
6.313139062E0,3.124139272E-3,1.253146399E-2,-6.806784077E-4
6.318103125E0,4.555309191E-3,8.726646192E-3,-4.188790335E-4
6.323065625E0,4.555309191E-3,8.726646192E-3,-4.188790335E-4
6.328029687E0,4.921828397E-3,7.330382708E-3,-2.094395168E-4
6.332992187E0,4.921828397E-3,7.330382708E-3,-2.094395168E-4
6.337956250E0,4.328416660E-3,7.086036727E-3,-1.221730490E-4
6.342918750E0,4.328416660E-3,7.086036727E-3,-1.221730490E-4
6.347881250E0,3.508111695E-3,9.494591504E-3,8.726646047E-5
6.352845312E0,3.508111695E-3,9.494591504E-3,8.726646047E-5
6.357807812E0,3.298672382E-3,1.284562331E-2,3.665191471E-4
6.362771875E0,3.298672382E-3,1.284562331E-2,3.665191471E-4
6.367734375E0,3.246312495E-3,1.822123677E-2,8.552113432E-4
6.372696875E0,3.246312495E-3,1.822123677E-2,8.552113432E-4
6.377660937E0,3.228859045E-3,2.424262278E-2,1.361356815E-3
6.382623437E0,3.228859045E-3,2.424262278E-2,1.361356815E-3
6.387587500E0,3.246312495E-3,3.422590718E-2,2.199114766E-3
6.392550000E0,3.246312495E-3,3.422590718E-2,2.199114766E-3
6.397514062E0,3.298672382E-3,4.349360615E-2,3.019419499E-3
6.402476562E0,3.298672382E-3,4.349360615E-2,3.019419499E-3
6.407439062E0,3.246312495E-3,4.502949491E-2,3.333578818E-3
6.412403125E0,3.246312495E-3,4.502949491E-2,3.333578818E-3
6.417365625E0,3.298672382E-3,4.721115530E-2,3.717551241E-3
6.422329687E0,3.298672382E-3,4.721115530E-2,3.717551241E-3
6.427292187E0,3.333578818E-3,4.731587693E-2,3.787364578E-3
6.432254687E0,3.333578818E-3,4.731587693E-2,3.787364578E-3
6.437218750E0,3.228859045E-3,4.188790172E-2,4.049163777E-3
6.442181250E0,3.228859045E-3,4.188790172E-2,4.049163777E-3
6.447145312E0,1.356120780E-2,2.021440268E-1,2.827433310E-2
6.452107812E0,1.356120780E-2,2.021440268E-1,2.827433310E-2
6.457070312E0,9.634217247E-3,1.917418689E-1,3.864159063E-2
6.462034375E0,9.634217247E-3,1.917418689E-1,3.864159063E-2
6.466996875E0,7.679448463E-3,1.657539159E-1,4.949753731E-2
6.471960937E0,7.679448463E-3,1.657539159E-1,4.949753731E-2
6.476923437E0,6.632251199E-3,1.892635077E-1,6.384414434E-2
6.481887500E0,6.632251199E-3,1.892635077E-1,6.384414434E-2
6.486850000E0,3.490658477E-3,2.002241760E-1,6.951646507E-2
6.491812500E0,3.490658477E-3,2.002241760E-1,6.951646507E-2
6.496776562E0,-1.762782573E-3,2.056346983E-1,6.993534416E-2
6.501739062E0,-1.762782573E-3,2.056346983E-1,6.993534416E-2
6.506703125E0,-6.614797749E-3,1.981297731E-1,6.604325771E-2
6.511665625E0,-6.614797749E-3,1.981297731E-1,6.604325771E-2
6.516629687E0,-1.041961554E-2,1.805892140E-1,6.101670861E-2
6.521592187E0,-1.041961554E-2,1.805892140E-1,6.101670861E-2
6.526554687E0,-2.076941775E-3,3.068288788E-2,1.064650808E-2
6.531518750E0,-2.076941775E-3,3.068288788E-2,1.064650808E-2
6.536481250E0,-1.815142459E-3,2.727949619E-2,1.003564335E-2
6.541445312E0,-1.815142459E-3,2.727949619E-2,1.003564335E-2
6.546407812E0,-8.168140426E-3,1.103048101E-1,4.703662172E-2
6.551371875E0,-8.168140426E-3,1.103048101E-1,4.703662172E-2
6.556334375E0,-6.841690745E-3,6.054547057E-2,3.867649660E-2
6.561296875E0,-6.841690745E-3,6.054547057E-2,3.867649660E-2
6.566260937E0,-4.188789986E-3,9.808750823E-3,2.701769583E-2
6.571223437E0,-4.188789986E-3,9.808750823E-3,2.701769583E-2
6.576187500E0,-2.303834539E-3,-3.274237737E-2,1.233947743E-2
6.581150000E0,-2.303834539E-3,-3.274237737E-2,1.233947743E-2
6.586114062E0,-3.141592606E-4,-1.010022014E-1,-4.921828397E-3
6.591076562E0,-3.141592606E-4,-1.010022014E-1,-4.921828397E-3
6.596039062E0,8.360126987E-3,-1.281420738E-1,-1.415462047E-2
6.601003125E0,8.360126987E-3,-1.281420738E-1,-1.415462047E-2
6.605965625E0,1.637118869E-2,-1.450717598E-1,-1.726130582E-2
6.610929687E0,1.637118869E-2,-1.450717598E-1,-1.726130582E-2
6.615892187E0,1.579522900E-2,-1.391900033E-1,-1.584758982E-2
6.620856250E0,1.579522900E-2,-1.391900033E-1,-1.584758982E-2
6.625818750E0,1.125737373E-2,-1.274788529E-1,-1.302015595E-2
6.630781250E0,1.125737373E-2,-1.274788529E-1,-1.302015595E-2
6.635745312E0,7.452555932E-3,-1.127482727E-1,-1.045452245E-2
6.640707812E0,7.452555932E-3,-1.127482727E-1,-1.045452245E-2
6.645671875E0,6.213372108E-3,-7.613126189E-2,-7.138396613E-3
6.650634375E0,6.213372108E-3,-7.613126189E-2,-7.138396613E-3
6.655598437E0,6.544984877E-3,-4.228932783E-2,-1.134464052E-3
6.660560937E0,6.544984877E-3,-4.228932783E-2,-1.134464052E-3
6.665523437E0,7.243116386E-3,-3.829252347E-2,4.921828397E-3
6.670487500E0,7.243116386E-3,-3.829252347E-2,4.921828397E-3
6.675450000E0,6.318091881E-3,-4.630358517E-2,1.139700040E-2
6.680414062E0,6.318091881E-3,-4.630358517E-2,1.139700040E-2
6.685376562E0,5.427973811E-3,4.363323096E-3,2.249729447E-2
6.690340625E0,5.427973811E-3,4.363323096E-3,2.249729447E-2
6.695303125E0,-4.537856148E-4,9.721484035E-3,2.865830623E-2
6.700265625E0,-4.537856148E-4,9.721484035E-3,2.865830623E-2
6.705229687E0,-6.806783844E-3,-4.660028964E-3,2.911209129E-2
6.710192187E0,-6.806783844E-3,-4.660028964E-3,2.911209129E-2
6.715156250E0,-1.153662615E-2,-3.070034087E-2,2.750638872E-2
6.720118750E0,-1.153662615E-2,-3.070034087E-2,2.750638872E-2
6.725081250E0,-1.244419720E-2,-3.145083413E-2,2.528982051E-2
6.730045312E0,-1.244419720E-2,-3.145083413E-2,2.528982051E-2
6.735007812E0,-1.186823845E-2,-4.047418386E-2,2.094395086E-2
6.739971875E0,-1.186823845E-2,-4.047418386E-2,2.094395086E-2
6.744934375E0,-1.097812131E-2,-5.530948564E-2,1.562069636E-2
6.749898437E0,-1.097812131E-2,-5.530948564E-2,1.562069636E-2
6.754860937E0,-1.008800324E-2,-4.167846218E-2,1.364847459E-2
6.759825000E0,-1.008800324E-2,-4.167846218E-2,1.364847459E-2
6.764787500E0,-7.731808349E-3,-3.525565192E-2,1.094321441E-2
6.769750000E0,-7.731808349E-3,-3.525565192E-2,1.094321441E-2
6.774714062E0,-4.834562074E-3,-3.337069601E-2,4.468042869E-3
6.779676562E0,-4.834562074E-3,-3.337069601E-2,4.468042869E-3
6.784640625E0,-2.443460980E-3,-1.343903504E-2,-2.478367416E-3
6.789603125E0,-2.443460980E-3,-1.343903504E-2,-2.478367416E-3
6.794567187E0,-2.199114766E-3,-1.165879890E-2,-1.563815027E-2
6.799529687E0,-2.199114766E-3,-1.165879890E-2,-1.563815027E-2
6.804493750E0,3.839724232E-4,9.005898610E-3,-2.436479554E-2
6.809456250E0,3.839724232E-4,9.005898610E-3,-2.436479554E-2
6.814418750E0,4.677482415E-3,2.139773592E-2,-2.823942713E-2
6.819382812E0,4.677482415E-3,2.139773592E-2,-2.823942713E-2
6.824345312E0,1.989675453E-3,-4.363323096E-4,-5.742133129E-3
6.829307812E0,1.989675453E-3,-4.363323096E-4,-5.742133129E-3
6.834270312E0,1.942551509E-2,-1.239183731E-2,-2.776818909E-2
6.839235937E0,1.942551509E-2,-1.239183731E-2,-2.776818909E-2
6.844198437E0,4.572762642E-3,-2.286381321E-3,-4.049163777E-3
6.849160937E0,4.572762642E-3,-2.286381321E-3,-4.049163777E-3
6.854125000E0,2.384119667E-2,5.934119690E-4,-1.506219152E-2
6.859087500E0,2.384119667E-2,5.934119690E-4,-1.506219152E-2
6.864051562E0,2.012364566E-2,2.460914291E-2,-9.878563695E-3
6.869014062E0,2.012364566E-2,2.460914291E-2,-9.878563695E-3
6.873976562E0,1.829105057E-2,5.335471407E-2,-1.466076588E-3
6.878940625E0,1.829105057E-2,5.335471407E-2,-1.466076588E-3
6.883903125E0,1.685987972E-2,9.606292099E-2,1.595230959E-2
6.888867187E0,1.685987972E-2,9.606292099E-2,1.595230959E-2
6.893829687E0,1.605702937E-2,1.433613449E-1,3.579670191E-2
6.898792187E0,1.605702937E-2,1.433613449E-1,3.579670191E-2
6.903754687E0,1.603957638E-2,2.009572089E-1,4.787437990E-2
6.908718750E0,1.603957638E-2,2.009572089E-1,4.787437990E-2
6.913681250E0,1.584758982E-2,2.061233819E-1,4.502949491E-2
6.918645312E0,1.584758982E-2,2.061233819E-1,4.502949491E-2
6.923607812E0,1.679006778E-2,2.087239176E-1,3.811798990E-2
6.928570312E0,1.679006778E-2,2.087239176E-1,3.811798990E-2
6.933534375E0,1.799434423E-2,1.675516069E-1,2.848377265E-2
6.938496875E0,1.799434423E-2,1.675516069E-1,2.848377265E-2
6.943460937E0,1.953023486E-2,1.512153298E-1,2.363175713E-2
6.948423437E0,1.953023486E-2,1.512153298E-1,2.363175713E-2
6.953387500E0,1.869247667E-2,1.469043642E-1,2.068215236E-2
6.958350000E0,1.869247667E-2,1.469043642E-1,2.068215236E-2
6.963314062E0,1.556833647E-2,1.244768798E-1,1.347394194E-2
6.968276562E0,1.556833647E-2,1.244768798E-1,1.347394194E-2
6.973239062E0,1.108284108E-2,1.019621342E-1,6.562437862E-3
6.978203125E0,1.108284108E-2,1.019621342E-1,6.562437862E-3
6.983165625E0,8.709193207E-3,8.970992267E-2,5.218534265E-3
6.988129687E0,8.709193207E-3,8.970992267E-2,5.218534265E-3
6.993093750E0,6.649704650E-3,8.876744658E-2,5.969026126E-3
6.998056250E0,6.649704650E-3,8.876744658E-2,5.969026126E-3
7.003018750E0,3.717551241E-3,7.819075137E-2,4.555309191E-3
7.007982812E0,3.717551241E-3,7.819075137E-2,4.555309191E-3
7.012945312E0,3.979350906E-3,5.712462589E-2,-5.934119690E-4
7.017909375E0,3.979350906E-3,5.712462589E-2,-5.934119690E-4
7.022871875E0,5.654866807E-3,2.398082428E-2,-8.203047328E-3
7.027835937E0,5.654866807E-3,2.398082428E-2,-8.203047328E-3
7.032798437E0,6.841690745E-3,-1.200786512E-2,-1.556833647E-2
7.037760937E0,6.841690745E-3,-1.200786512E-2,-1.556833647E-2
7.042723437E0,6.248278543E-3,-3.462733328E-2,-2.003637888E-2
7.047685937E0,6.248278543E-3,-3.462733328E-2,-2.003637888E-2
7.052650000E0,5.131267942E-3,-4.509930685E-2,-2.113593742E-2
7.057612500E0,5.131267942E-3,-4.509930685E-2,-2.113593742E-2
7.062576562E0,4.258603323E-3,-6.063273922E-2,-1.755801216E-2
7.067539062E0,4.258603323E-3,-6.063273922E-2,-1.755801216E-2
7.072503125E0,4.118977115E-3,-8.023278415E-2,-1.237438433E-2
7.077465625E0,4.118977115E-3,-8.023278415E-2,-1.237438433E-2
7.082429687E0,5.777040031E-3,-8.428195119E-2,-7.016223390E-3
7.087392187E0,5.777040031E-3,-8.428195119E-2,-7.016223390E-3
7.092354687E0,6.370451767E-3,-1.043532342E-1,-8.115780540E-3
7.097318750E0,6.370451767E-3,-1.043532342E-1,-8.115780540E-3
7.102281250E0,6.161012221E-3,-1.194154248E-1,-2.007128671E-3
7.107245312E0,6.161012221E-3,-1.194154248E-1,-2.007128671E-3
7.112207812E0,5.811946467E-3,-1.144586951E-1,1.033234876E-2
7.117171875E0,5.811946467E-3,-1.144586951E-1,1.033234876E-2
7.122134375E0,5.515240598E-3,-1.111774743E-1,1.851794310E-2
7.127096875E0,5.515240598E-3,-1.111774743E-1,1.851794310E-2
7.132060937E0,5.427973811E-3,-1.108109504E-1,1.361356769E-2
7.137023437E0,5.427973811E-3,-1.108109504E-1,1.361356769E-2
7.141987500E0,5.340707488E-3,-1.183333248E-1,2.530727303E-3
7.146950000E0,5.340707488E-3,-1.183333248E-1,2.530727303E-3
7.151914062E0,5.689773243E-3,-1.162563786E-1,-1.017526910E-2
7.156876562E0,5.689773243E-3,-1.162563786E-1,-1.017526910E-2
7.161839062E0,6.771877408E-3,-1.102349982E-1,-1.855284907E-2
7.166803125E0,6.771877408E-3,-1.102349982E-1,-1.855284907E-2
7.171765625E0,8.080874570E-3,-9.567894787E-2,-1.680752076E-2
7.176729687E0,8.080874570E-3,-9.567894787E-2,-1.680752076E-2
7.181692187E0,8.883725852E-3,-1.091179848E-1,-3.186971322E-2
7.186654687E0,8.883725852E-3,-1.091179848E-1,-3.186971322E-2
7.191618750E0,8.691739291E-3,-1.494874507E-1,-5.939355493E-2
7.196582812E0,8.691739291E-3,-1.494874507E-1,-5.939355493E-2
7.201545312E0,8.011061698E-3,-1.593485624E-1,-7.805112749E-2
7.206507812E0,8.011061698E-3,-1.593485624E-1,-7.805112749E-2
7.211470312E0,6.300638430E-3,-1.476373971E-1,-7.476990670E-2
7.216434375E0,6.300638430E-3,-1.476373971E-1,-7.476990670E-2
7.221396875E0,9.250245057E-4,-9.913469851E-2,-5.693263933E-2
7.226360937E0,9.250245057E-4,-9.913469851E-2,-5.693263933E-2
7.231323437E0,-1.003564335E-2,-7.269296050E-2,-4.099778458E-2
7.236287500E0,-1.003564335E-2,-7.269296050E-2,-4.099778458E-2
7.241250000E0,-2.235766686E-2,-4.164355621E-2,-2.792526782E-2
7.246212500E0,-2.235766686E-2,-4.164355621E-2,-2.792526782E-2
7.251176562E0,-2.834414691E-2,-6.195918657E-3,-1.968731359E-2
7.256139062E0,-2.834414691E-2,-6.195918657E-3,-1.968731359E-2
7.261103125E0,-2.565634064E-2,1.300270297E-2,-1.443387289E-2
7.266065625E0,-2.565634064E-2,1.300270297E-2,-1.443387289E-2
7.271029687E0,-1.787217148E-2,1.022762898E-2,-1.029744279E-2
7.275992187E0,-1.787217148E-2,1.022762898E-2,-1.029744279E-2
7.280954687E0,-1.087340154E-2,3.839724232E-3,-1.038470864E-2
7.285918750E0,-1.087340154E-2,3.839724232E-3,-1.038470864E-2
7.290882812E0,-7.068583276E-3,3.036872949E-3,-1.347394194E-2
7.295845312E0,-7.068583276E-3,3.036872949E-3,-1.347394194E-2
7.300807812E0,-5.742133129E-3,9.948376566E-3,-1.665044017E-2
7.305771875E0,-5.742133129E-3,9.948376566E-3,-1.665044017E-2
7.310734375E0,1.762782573E-3,-3.385938704E-3,-1.727875881E-2
7.315696875E0,1.762782573E-3,-3.385938704E-3,-1.727875881E-2
7.320660937E0,1.345648803E-2,5.724680144E-3,-1.637118869E-2
7.325623437E0,1.345648803E-2,5.724680144E-3,-1.637118869E-2
7.330587500E0,2.408554405E-2,1.918116771E-2,-2.005383372E-2
7.335550000E0,2.408554405E-2,1.918116771E-2,-2.005383372E-2
7.340514062E0,2.928662486E-2,9.407324716E-3,-2.392846346E-2
7.345476562E0,2.928662486E-2,9.407324716E-3,-2.392846346E-2
7.350439062E0,3.148574010E-2,3.401646763E-2,-1.956514083E-2
7.355403125E0,3.148574010E-2,3.401646763E-2,-1.956514083E-2
7.360365625E0,3.169517964E-2,7.674212754E-2,-1.110029407E-2
7.365329687E0,3.169517964E-2,7.674212754E-2,-1.110029407E-2
7.370292187E0,2.937389165E-2,1.246165112E-1,-3.054326167E-3
7.375256250E0,2.937389165E-2,1.246165112E-1,-3.054326167E-3
7.380218750E0,2.469640970E-2,1.478817463E-1,5.759586347E-4
7.385181250E0,2.469640970E-2,1.478817463E-1,5.759586347E-4
7.390145312E0,2.118829638E-2,1.464680284E-1,5.759586347E-4
7.395107812E0,2.118829638E-2,1.464680284E-1,5.759586347E-4
7.400071875E0,1.867502369E-2,1.350535750E-1,-2.338741207E-3
7.405034375E0,1.867502369E-2,1.350535750E-1,-2.338741207E-3
7.409998437E0,1.668534800E-2,1.132544130E-1,-8.063420653E-3
7.414960937E0,1.668534800E-2,1.132544130E-1,-8.063420653E-3
7.419923437E0,1.481784508E-2,8.628907800E-2,-1.560324337E-2
7.424887500E0,1.481784508E-2,8.628907800E-2,-1.560324337E-2
7.429850000E0,1.321214251E-2,4.412192479E-2,-2.551671304E-2
7.434814062E0,1.321214251E-2,4.412192479E-2,-2.551671304E-2
7.439776562E0,1.246165112E-2,5.550147034E-3,-3.340560198E-2
7.444740625E0,1.246165112E-2,5.550147034E-3,-3.340560198E-2
7.449703125E0,1.111774705E-2,-6.981316954E-3,-2.979277074E-2
7.454665625E0,1.111774705E-2,-6.981316954E-3,-2.979277074E-2
7.459629687E0,1.106538717E-2,-1.483529899E-2,-2.010619268E-2
7.464592187E0,1.106538717E-2,-1.483529899E-2,-2.010619268E-2
7.469556250E0,9.826203808E-3,-5.302310362E-2,-1.240929123E-2
7.474518750E0,9.826203808E-3,-5.302310362E-2,-1.240929123E-2
7.479482812E0,6.230825558E-3,-1.210909411E-1,-1.343903504E-2
7.484445312E0,6.230825558E-3,-1.210909411E-1,-1.343903504E-2
7.489407812E0,1.431170036E-3,-1.425061375E-1,-6.946410518E-3
7.494371875E0,1.431170036E-3,-1.425061375E-1,-6.946410518E-3
7.499334375E0,-3.403391922E-3,-1.201135591E-1,1.797689125E-2
7.504298437E0,-3.403391922E-3,-1.201135591E-1,1.797689125E-2
7.509260937E0,-4.031710327E-3,-6.382668763E-2,4.895648360E-2
7.514225000E0,-4.031710327E-3,-6.382668763E-2,4.895648360E-2
7.519187500E0,-1.169370580E-2,9.773843922E-4,7.070329040E-2
7.524150000E0,-1.169370580E-2,9.773843922E-4,7.070329040E-2
7.529114062E0,-2.935643867E-2,8.321730047E-2,7.859217376E-2
7.534076562E0,-2.935643867E-2,8.321730047E-2,7.859217376E-2
7.539040625E0,-4.265584797E-2,1.144237816E-1,7.180284709E-2
7.544003125E0,-4.265584797E-2,1.144237816E-1,7.180284709E-2
7.548967187E0,-3.736750036E-2,1.008276716E-1,5.986479297E-2
7.553929687E0,-3.736750036E-2,1.008276716E-1,5.986479297E-2
7.558892187E0,-2.268928103E-2,1.014559865E-1,5.124286562E-2
7.563856250E0,-2.268928103E-2,1.014559865E-1,5.124286562E-2
7.568818750E0,-8.482299745E-3,1.339016557E-1,4.927064478E-2
7.573782812E0,-8.482299745E-3,1.339016557E-1,4.927064478E-2
7.578745312E0,-1.570796361E-3,1.417207420E-1,3.874630854E-2
7.583709375E0,-1.570796361E-3,1.417207420E-1,3.874630854E-2
7.588671875E0,5.759586347E-4,9.889035672E-2,1.804670505E-2
7.593634375E0,5.759586347E-4,9.889035672E-2,1.804670505E-2
7.598598437E0,1.230457146E-2,5.391322076E-2,-1.972222002E-3
7.603560937E0,1.230457146E-2,5.391322076E-2,-1.972222002E-3
7.608523437E0,2.928662486E-2,-9.564404376E-3,-1.600466855E-2
7.613487500E0,2.928662486E-2,-9.564404376E-3,-1.600466855E-2
7.618450000E0,4.295255244E-2,-4.471533373E-2,-2.113593742E-2
7.623414062E0,4.295255244E-2,-4.471533373E-2,-2.113593742E-2
7.628376562E0,4.349360615E-2,-3.872885555E-2,-1.860520989E-2
7.633340625E0,4.349360615E-2,-3.872885555E-2,-1.860520989E-2
7.638303125E0,3.579670191E-2,-2.286381274E-2,-1.403244678E-2
7.643265625E0,3.579670191E-2,-2.286381274E-2,-1.403244678E-2
7.648229687E0,2.892010473E-2,-2.572615258E-2,-1.190314535E-2
7.653192187E0,2.892010473E-2,-2.572615258E-2,-1.190314535E-2
7.658156250E0,2.401573025E-2,-1.743583940E-2,-9.128072299E-3
7.663118750E0,2.401573025E-2,-1.743583940E-2,-9.128072299E-3
7.668082812E0,2.068215236E-2,1.717403904E-2,-6.632251316E-4
7.673045312E0,2.068215236E-2,1.717403904E-2,-6.632251316E-4
7.678007812E0,1.846558414E-2,4.227187485E-2,9.529497474E-3
7.682971875E0,1.846558414E-2,4.227187485E-2,9.529497474E-3
7.687934375E0,1.586504281E-2,6.262241304E-2,2.019345947E-2
7.692898437E0,1.586504281E-2,6.262241304E-2,2.019345947E-2
7.697860937E0,1.162389293E-2,9.276425093E-2,3.090978041E-2
7.702825000E0,1.162389293E-2,9.276425093E-2,3.090978041E-2
7.707787500E0,4.869468510E-3,1.306378990E-1,4.064871743E-2
7.712751562E0,4.869468510E-3,1.306378990E-1,4.064871743E-2
7.717714062E0,-2.530727303E-3,1.585980654E-1,4.656538367E-2
7.722678125E0,-2.530727303E-3,1.585980654E-1,4.656538367E-2
7.727640625E0,-8.150687441E-3,2.021440268E-1,5.176646635E-2
7.732603125E0,-8.150687441E-3,2.021440268E-1,5.176646635E-2
7.737567187E0,-1.226966456E-2,2.001020014E-1,5.099852011E-2
7.742529687E0,-1.226966456E-2,2.001020014E-1,5.099852011E-2
7.747492187E0,-1.553343050E-2,2.360732406E-1,5.349434167E-2
7.752456250E0,-1.553343050E-2,2.360732406E-1,5.349434167E-2
7.757418750E0,-2.136282995E-2,2.321462482E-1,5.194099993E-2
7.762382812E0,-2.136282995E-2,2.321462482E-1,5.194099993E-2
7.767345312E0,-2.293362655E-2,2.229832709E-1,4.881685972E-2
7.772309375E0,-2.293362655E-2,2.229832709E-1,4.881685972E-2
7.777271875E0,-1.966986060E-2,2.021789402E-1,4.314453900E-2
7.782235937E0,-1.966986060E-2,2.021789402E-1,4.314453900E-2
7.787198437E0,-1.495747175E-2,2.058964968E-1,3.935717419E-2
7.792160937E0,-1.495747175E-2,2.058964968E-1,3.935717419E-2
7.797125000E0,-9.808750823E-3,2.251125723E-1,3.836233541E-2
7.802087500E0,-9.808750823E-3,2.251125723E-1,3.836233541E-2
7.807051562E0,-5.288347602E-3,2.126334608E-1,3.193952516E-2
7.812014062E0,-5.288347602E-3,2.126334608E-1,3.193952516E-2
7.816978125E0,-3.612831468E-3,1.904677749E-1,2.045525797E-2
7.821940625E0,-3.612831468E-3,1.904677749E-1,2.045525797E-2
7.826903125E0,9.145525284E-3,8.873254061E-2,7.853981806E-4
7.831867187E0,9.145525284E-3,8.873254061E-2,7.853981806E-4
7.836829687E0,3.467969224E-2,-4.480260238E-2,-2.015855350E-2
7.841792187E0,3.467969224E-2,-4.480260238E-2,-2.015855350E-2
7.846756250E0,5.972516537E-2,-1.162738353E-1,-3.316125646E-2
7.851718750E0,5.972516537E-2,-1.162738353E-1,-3.316125646E-2
7.856682812E0,6.981316954E-2,-1.335700452E-1,-3.614576906E-2
7.861645312E0,6.981316954E-2,-1.335700452E-1,-3.614576906E-2
7.866609375E0,6.394886225E-2,-1.211433038E-1,-3.106686100E-2
7.871571875E0,6.394886225E-2,-1.211433038E-1,-3.106686100E-2
7.876534375E0,9.267698042E-3,-2.570869960E-2,-5.445427261E-3
7.881498437E0,9.267698042E-3,-2.570869960E-2,-5.445427261E-3
7.886460937E0,6.527531426E-3,-3.989822790E-2,-6.405358203E-3
7.891425000E0,6.527531426E-3,-3.989822790E-2,-6.405358203E-3
7.896387500E0,4.834562074E-3,-5.373868719E-2,-7.120943163E-3
7.901351562E0,4.834562074E-3,-5.373868719E-2,-7.120943163E-3
7.906314062E0,4.223696887E-3,-5.658357590E-2,-6.195918657E-3
7.911278125E0,4.223696887E-3,-5.658357590E-2,-6.195918657E-3
7.916240625E0,1.343903481E-3,-5.674065277E-2,-4.258603323E-3
7.921203125E0,1.343903481E-3,-5.674065277E-2,-4.258603323E-3
7.926167187E0,-3.089232836E-3,-4.386012256E-2,-8.203047328E-4
7.931129687E0,-3.089232836E-3,-4.386012256E-2,-8.203047328E-4
7.936093750E0,-7.557275705E-3,-3.101450019E-2,2.600540640E-3
7.941056250E0,-7.557275705E-3,-3.101450019E-2,2.600540640E-3
7.946018750E0,-1.005309634E-2,-2.979277074E-2,4.328416660E-3
7.950982812E0,-1.005309634E-2,-2.979277074E-2,4.328416660E-3
7.955945312E0,-9.773843922E-3,-3.572688997E-2,4.782202188E-3
7.960909375E0,-9.773843922E-3,-3.572688997E-2,4.782202188E-3
7.965871875E0,-9.040805511E-3,-3.605850041E-2,5.323254038E-3
7.970834375E0,-9.040805511E-3,-3.605850041E-2,5.323254038E-3
7.975798437E0,-8.569566533E-3,-3.855432197E-2,5.009094719E-3
7.980760937E0,-8.569566533E-3,-3.855432197E-2,5.009094719E-3
7.985725000E0,-8.412486874E-3,-4.201007634E-2,4.171337001E-3
7.990687500E0,-8.412486874E-3,-4.201007634E-2,4.171337001E-3
7.995651562E0,-8.429939859E-3,-4.721115530E-2,3.228859045E-3
8.000614062E0,-8.429939859E-3,-4.721115530E-2,3.228859045E-3
8.005578125E0,-8.464846760E-3,-5.571090803E-2,2.268928103E-3
8.010540625E0,-8.464846760E-3,-5.571090803E-2,2.268928103E-3
8.015503125E0,-8.395033889E-3,-6.391395628E-2,2.792526793E-4
8.020467187E0,-8.395033889E-3,-6.391395628E-2,2.792526793E-4
8.025429687E0,-4.255112633E-2,-3.885277510E-1,-1.799434423E-2
8.030393750E0,-4.255112633E-2,-3.885277510E-1,-1.799434423E-2
8.035356250E0,-3.612831607E-2,-3.991568089E-1,-3.855432197E-2
8.040320312E0,-3.612831607E-2,-3.991568089E-1,-3.855432197E-2
8.045282812E0,-2.796017379E-2,-4.308170676E-1,-5.576327071E-2
8.050245312E0,-2.796017379E-2,-4.308170676E-1,-5.576327071E-2
8.055209375E0,-1.703441329E-2,-4.438197613E-1,-6.496115774E-2
8.060171875E0,-1.703441329E-2,-4.438197613E-1,-6.496115774E-2
8.065134375E0,-3.368485486E-3,-4.312010407E-1,-6.738716364E-2
8.070098437E0,-3.368485486E-3,-4.312010407E-1,-6.738716364E-2
8.075062500E0,1.209513191E-2,-4.115486443E-1,-6.572909653E-2
8.080025000E0,1.209513191E-2,-4.115486443E-1,-6.572909653E-2
8.084987500E0,2.834414691E-2,-3.849498332E-1,-6.178465486E-2
8.089951562E0,2.834414691E-2,-3.849498332E-1,-6.178465486E-2
8.094914062E0,4.445353523E-2,-3.361853063E-1,-5.312782153E-2
8.099876562E0,4.445353523E-2,-3.361853063E-1,-5.312782153E-2
8.104840625E0,5.729915947E-2,-3.082251549E-1,-4.595451802E-2
8.109803125E0,5.729915947E-2,-3.082251549E-1,-4.595451802E-2
8.114767187E0,5.831145123E-2,-2.994461358E-1,-4.188790172E-2
8.119731250E0,5.831145123E-2,-2.994461358E-1,-4.188790172E-2
8.124693750E0,4.893903062E-2,-2.499835044E-1,-3.260274976E-2
8.129656250E0,4.893903062E-2,-2.499835044E-1,-3.260274976E-2
8.134620312E0,3.544763848E-2,-1.880417764E-1,-1.699950732E-2
8.139582812E0,3.544763848E-2,-1.880417764E-1,-1.699950732E-2
8.144545312E0,2.448697016E-2,-9.976302087E-2,3.508111695E-3
8.149507812E0,2.448697016E-2,-9.976302087E-2,3.508111695E-3
8.154471875E0,1.799434423E-2,-4.831071198E-2,1.888446324E-2
8.159435937E0,1.799434423E-2,-4.831071198E-2,1.888446324E-2
8.164398437E0,1.457349956E-2,-2.047271281E-2,2.541199327E-2
8.169360937E0,1.457349956E-2,-2.047271281E-2,2.541199327E-2
8.174325000E0,2.949606394E-3,1.734857261E-2,2.462659590E-2
8.179289062E0,2.949606394E-3,1.734857261E-2,2.462659590E-2
8.184251562E0,-1.153662615E-2,7.897614688E-2,2.398082428E-2
8.189214062E0,-1.153662615E-2,7.897614688E-2,2.398082428E-2
8.194178125E0,-1.806415804E-2,1.071283072E-1,2.230530791E-2
8.199140625E0,-1.806415804E-2,1.071283072E-1,2.230530791E-2
8.204104687E0,-1.577777602E-2,1.246688664E-1,2.214822732E-2
8.209067187E0,-1.577777602E-2,1.246688664E-1,2.214822732E-2
8.214031250E0,-1.008800324E-2,1.214749143E-1,2.139773592E-2
8.218993750E0,-1.008800324E-2,1.214749143E-1,2.139773592E-2
8.223956250E0,-6.003932562E-3,1.047197580E-1,2.014109865E-2
8.228918750E0,-6.003932562E-3,1.047197580E-1,2.014109865E-2
8.233882812E0,-3.176499158E-3,1.027824357E-1,2.055997774E-2
8.238845312E0,-3.176499158E-3,1.027824357E-1,2.055997774E-2
8.243809375E0,-2.565633971E-3,8.988445252E-2,2.127556317E-2
8.248771875E0,-2.565633971E-3,8.988445252E-2,2.127556317E-2
8.253735937E0,-1.221730490E-4,7.148868591E-2,2.251474746E-2
8.258698437E0,-1.221730490E-4,7.148868591E-2,2.251474746E-2
8.263662500E0,4.625122529E-3,5.185373127E-2,2.230530791E-2
8.268625000E0,4.625122529E-3,5.185373127E-2,2.230530791E-2
8.273589062E0,6.981316954E-3,3.248057887E-2,2.094395086E-2
8.278551562E0,6.981316954E-3,3.248057887E-2,2.094395086E-2
8.283514062E0,3.176499158E-3,1.073377486E-2,1.455604564E-2
8.288476562E0,3.176499158E-3,1.073377486E-2,1.455604564E-2
8.293440625E0,1.396263397E-4,-7.330382941E-4,9.791296907E-3
8.298403125E0,1.396263397E-4,-7.330382941E-4,9.791296907E-3
8.303367187E0,-9.773843922E-4,-7.120943163E-3,6.684611086E-3
8.308329687E0,-9.773843922E-4,-7.120943163E-3,6.684611086E-3
8.313293750E0,-3.490658419E-4,-1.068141498E-2,5.497787148E-3
8.318257812E0,-3.490658419E-4,-1.068141498E-2,5.497787148E-3
8.323220312E0,1.343903481E-3,-2.499311417E-2,7.853981806E-4
8.328182812E0,1.343903481E-3,-2.499311417E-2,7.853981806E-4
8.333146875E0,3.752457909E-3,-5.654866621E-2,-8.237954229E-3
8.338107812E0,3.752457909E-3,-5.654866621E-2,-8.237954229E-3
8.343071875E0,6.806783844E-3,-8.482300490E-2,-1.446877979E-2
8.348035937E0,6.806783844E-3,-8.482300490E-2,-1.446877979E-2
8.352998437E0,1.000073645E-2,-1.007229537E-1,-1.640609466E-2
8.357960937E0,1.000073645E-2,-1.007229537E-1,-1.640609466E-2
8.362923437E0,1.586504281E-2,-8.770279586E-2,-1.356120780E-2
8.367887500E0,1.586504281E-2,-8.770279586E-2,-1.356120780E-2
8.372850000E0,1.738347858E-2,-7.642796636E-2,-8.901178837E-3
8.377814062E0,1.738347858E-2,-7.642796636E-2,-8.901178837E-3
8.382776562E0,1.363102160E-2,-9.922196716E-2,-8.691739291E-3
8.387740625E0,1.363102160E-2,-9.922196716E-2,-8.691739291E-3
8.392703125E0,7.295476273E-3,-9.539970011E-2,-7.679448463E-3
8.397665625E0,7.295476273E-3,-9.539970011E-2,-7.679448463E-3
8.402629687E0,8.901178953E-4,-7.417649031E-2,-4.485496320E-3
8.407592187E0,8.901178953E-4,-7.417649031E-2,-4.485496320E-3
8.412556250E0,-3.228859045E-3,-7.817329466E-2,-1.797689125E-3
8.417518750E0,-3.228859045E-3,-7.817329466E-2,-1.797689125E-3
8.422482812E0,-7.016223390E-3,-7.065092772E-2,6.806784077E-4
8.427445312E0,-7.016223390E-3,-7.065092772E-2,6.806784077E-4
8.432407812E0,-1.774999872E-2,-5.890486389E-2,9.075712296E-4
8.437371875E0,-1.774999872E-2,-5.890486389E-2,9.075712296E-4
8.442334375E0,-2.288126573E-2,-9.060004354E-2,-4.607669078E-3
8.447298437E0,-2.288126573E-2,-9.060004354E-2,-4.607669078E-3
8.452260937E0,-1.591740362E-2,-1.027300805E-1,-6.894050632E-3
8.457225000E0,-1.591740362E-2,-1.027300805E-1,-6.894050632E-3
8.462187500E0,-5.375613924E-3,-1.147379428E-1,-1.087340154E-2
8.467150000E0,-5.375613924E-3,-1.147379428E-1,-1.087340154E-2
8.472114062E0,3.385938704E-3,-1.183507740E-1,-1.883210242E-2
8.477076562E0,3.385938704E-3,-1.183507740E-1,-1.883210242E-2
8.482040625E0,7.103490178E-3,-1.362404078E-1,-2.958333120E-2
8.487003125E0,7.103490178E-3,-1.362404078E-1,-2.958333120E-2
8.491967187E0,7.155850064E-3,-1.658935398E-1,-3.502875939E-2
8.496929687E0,7.155850064E-3,-1.658935398E-1,-3.502875939E-2
8.501892187E0,1.169370580E-2,-1.822472811E-1,-3.408627957E-2
8.506856250E0,1.169370580E-2,-1.822472811E-1,-3.408627957E-2
8.511818750E0,1.377064735E-2,-1.692620367E-1,-2.790781483E-2
8.516782812E0,1.377064735E-2,-1.692620367E-1,-2.790781483E-2
8.521745312E0,1.165879890E-2,-1.128006279E-1,-1.888446324E-2
8.526709375E0,1.165879890E-2,-1.128006279E-1,-1.888446324E-2
8.531671875E0,7.888888009E-3,-5.532693863E-2,-1.247910410E-2
8.536634375E0,7.888888009E-3,-5.532693863E-2,-1.247910410E-2
8.541598437E0,6.632251199E-3,2.556907386E-2,-5.078908056E-3
8.546560937E0,6.632251199E-3,2.556907386E-2,-5.078908056E-3
8.551525000E0,6.161012221E-3,4.169591516E-2,-2.757620299E-3
8.556487500E0,6.161012221E-3,4.169591516E-2,-2.757620299E-3
8.561451562E0,5.480333697E-3,5.948081985E-2,-1.396263367E-3
8.566415625E0,5.480333697E-3,5.948081985E-2,-1.396263367E-3
8.571376562E0,5.061454722E-4,1.211258490E-2,-4.014257283E-4
8.576340625E0,5.061454722E-4,1.211258490E-2,-4.014257283E-4
8.581303125E0,1.221730490E-4,1.939060725E-2,-1.396263397E-4
8.586267187E0,1.221730490E-4,1.939060725E-2,-1.396263397E-4
8.591229687E0,1.221730490E-3,1.072504818E-1,-2.268928074E-4
8.596193750E0,1.221730490E-3,1.072504818E-1,-2.268928074E-4
8.601156250E0,6.981316954E-3,1.056273282E-1,-2.757620299E-3
8.606118750E0,6.981316954E-3,1.056273282E-1,-2.757620299E-3
8.611082812E0,1.158898603E-2,1.139699966E-1,-6.649704650E-3
8.616045312E0,1.158898603E-2,1.139699966E-1,-6.649704650E-3
8.621009375E0,1.261873078E-2,1.434660703E-1,-8.534659632E-3
8.625971875E0,1.261873078E-2,1.434660703E-1,-8.534659632E-3
8.630935937E0,1.532399096E-2,1.833642870E-1,-7.592182141E-3
8.635898437E0,1.532399096E-2,1.833642870E-1,-7.592182141E-3
8.640860937E0,1.801179722E-2,2.312212139E-1,-7.504915702E-4
8.645825000E0,1.801179722E-2,2.312212139E-1,-7.504915702E-4
8.650787500E0,1.350884791E-2,2.369808108E-1,5.410520826E-3
8.655751562E0,1.350884791E-2,2.369808108E-1,5.410520826E-3
8.660714062E0,5.026548170E-3,2.320938855E-1,9.686577134E-3
8.665676562E0,5.026548170E-3,2.320938855E-1,9.686577134E-3
8.670640625E0,-2.687806962E-3,2.170840502E-1,9.843656793E-3
8.675603125E0,-2.687806962E-3,2.170840502E-1,9.843656793E-3
8.680567187E0,-4.049163777E-3,2.125112861E-1,1.911135577E-2
8.685529687E0,-4.049163777E-3,2.125112861E-1,1.911135577E-2
8.690493750E0,-7.906341925E-3,2.307499796E-1,3.991568089E-2
8.695456250E0,-7.906341925E-3,2.307499796E-1,3.991568089E-2
8.700418750E0,-1.525417715E-2,2.597573400E-1,6.792821735E-2
8.705382812E0,-1.525417715E-2,2.597573400E-1,6.792821735E-2
8.710346875E0,-1.984439418E-2,2.905798554E-1,9.150761366E-2
8.715309375E0,-1.984439418E-2,2.905798554E-1,9.150761366E-2
8.720273437E0,-2.094395086E-2,2.928662598E-1,9.588839114E-2
8.725235937E0,-2.094395086E-2,2.928662598E-1,9.588839114E-2
8.730198437E0,-1.645845547E-2,2.528283894E-1,8.487536013E-2
8.735160937E0,-1.645845547E-2,2.528283894E-1,8.487536013E-2
8.740125000E0,-1.015781611E-2,1.971698403E-1,6.857398897E-2
8.745087500E0,-1.015781611E-2,1.971698403E-1,6.857398897E-2
8.750051562E0,-7.539822254E-3,1.864186227E-1,5.553637818E-2
8.755014062E0,-7.539822254E-3,1.864186227E-1,5.553637818E-2
8.759978125E0,2.268928074E-4,1.742362231E-1,4.586725309E-2
8.764940625E0,2.268928074E-4,1.742362231E-1,4.586725309E-2
8.769903125E0,1.610938832E-2,1.181238815E-1,3.661700711E-2
8.774867187E0,1.610938832E-2,1.181238815E-1,3.661700711E-2
8.779831250E0,3.204424679E-2,8.529423922E-2,2.939134464E-2
8.784793750E0,3.204424679E-2,8.529423922E-2,2.939134464E-2
8.789756250E0,3.736750036E-2,6.986553222E-2,2.176425606E-2
8.794720312E0,3.736750036E-2,6.986553222E-2,2.176425606E-2
8.799682812E0,3.286454827E-2,6.169738993E-2,1.925098151E-2
8.804645312E0,3.286454827E-2,6.169738993E-2,1.925098151E-2
8.809609375E0,2.548180707E-2,6.335545331E-2,2.120575123E-2
8.814571875E0,2.548180707E-2,6.335545331E-2,2.120575123E-2
8.819535937E0,2.111848444E-2,6.825982779E-2,2.265437320E-2
8.824498437E0,2.111848444E-2,6.825982779E-2,2.265437320E-2
8.829462500E0,1.792453043E-2,4.626867920E-2,2.017600648E-2
8.834425000E0,1.792453043E-2,4.626867920E-2,2.017600648E-2
8.839387500E0,1.544616371E-2,4.520402756E-3,1.979203336E-2
8.844351562E0,1.544616371E-2,4.520402756E-3,1.979203336E-2
8.849314062E0,1.319468953E-2,-2.988003753E-2,2.289872058E-2
8.854278125E0,1.319468953E-2,-2.988003753E-2,2.289872058E-2
8.859240625E0,1.057669520E-2,-8.663814515E-2,2.145009674E-2
8.864204687E0,1.057669520E-2,-8.663814515E-2,2.145009674E-2
8.869167187E0,1.078613475E-2,-7.620107383E-2,2.104867063E-2
8.874129687E0,1.078613475E-2,-7.620107383E-2,2.104867063E-2
8.879093750E0,1.556833647E-2,-6.220353395E-2,1.661553420E-2
8.884056250E0,1.556833647E-2,-6.220353395E-2,1.661553420E-2
8.889020312E0,2.591813914E-2,-8.119271696E-2,1.071632188E-2
8.893982812E0,2.591813914E-2,-8.119271696E-2,1.071632188E-2
8.898945312E0,3.659955412E-2,-1.030442417E-1,7.208209950E-3
8.903909375E0,3.659955412E-2,-1.030442417E-1,7.208209950E-3
8.908871875E0,4.136430472E-2,-7.995353639E-2,9.843656793E-3
8.913835937E0,4.136430472E-2,-7.995353639E-2,9.843656793E-3
8.918798437E0,3.522074595E-2,-6.429792941E-2,1.312487572E-2
8.923762500E0,3.522074595E-2,-6.429792941E-2,1.312487572E-2
8.928725000E0,2.485348843E-2,-4.998622835E-2,1.680752076E-2
8.933687500E0,2.485348843E-2,-4.998622835E-2,1.680752076E-2
8.938651562E0,1.583013684E-2,-3.164282069E-2,2.087413706E-2
8.943614062E0,1.583013684E-2,-3.164282069E-2,2.087413706E-2
8.948578125E0,1.024508290E-2,-3.642502055E-2,2.628465928E-2
8.953540625E0,1.024508290E-2,-3.642502055E-2,2.628465928E-2
8.958503125E0,7.539822254E-3,-4.839798063E-2,3.275983036E-2
8.963467187E0,7.539822254E-3,-4.839798063E-2,3.275983036E-2
8.968429687E0,5.881759338E-3,-6.836454570E-2,3.567453101E-2
8.973393750E0,5.881759338E-3,-6.836454570E-2,3.567453101E-2
8.978356250E0,4.764748737E-3,-1.015956178E-1,3.068288788E-2
8.983320312E0,4.764748737E-3,-1.015956178E-1,3.068288788E-2
8.988282812E0,6.265731994E-3,-1.271646917E-1,2.078687213E-2
8.993245312E0,6.265731994E-3,-1.271646917E-1,2.078687213E-2
8.998209375E0,1.466076542E-2,-1.547583491E-1,8.621926419E-3
9.003171875E0,1.466076542E-2,-1.547583491E-1,8.621926419E-3
9.008135937E0,3.015928902E-2,-1.938886195E-1,-4.328416660E-3
9.013098437E0,3.015928902E-2,-1.938886195E-1,-4.328416660E-3
9.018062500E0,4.436627030E-2,-1.890715212E-1,-8.831365965E-3
9.023025000E0,4.436627030E-2,-1.890715212E-1,-8.831365965E-3
9.027987500E0,5.010840297E-2,-2.062804699E-1,-1.675515994E-2
9.032951562E0,5.010840297E-2,-2.062804699E-1,-1.675515994E-2
9.037914062E0,5.150466785E-2,-2.373647839E-1,-3.839724511E-2
9.042878125E0,5.150466785E-2,-2.373647839E-1,-3.839724511E-2
9.047840625E0,4.644321278E-2,-2.683269083E-1,-6.455972791E-2
9.052804687E0,4.644321278E-2,-2.683269083E-1,-6.455972791E-2
9.057767187E0,3.783873841E-2,-2.731440365E-1,-7.637561113E-2
9.062729687E0,3.783873841E-2,-2.731440365E-1,-7.637561113E-2
9.067693750E0,2.953097038E-2,-2.528632879E-1,-7.560766488E-2
9.072656250E0,2.953097038E-2,-2.528632879E-1,-7.560766488E-2
9.077620312E0,2.638937905E-2,-2.275909334E-1,-6.873106211E-2
9.082582812E0,2.638937905E-2,-2.275909334E-1,-6.873106211E-2
9.087546875E0,1.769763790E-2,-1.866629571E-1,-5.777039751E-2
9.092509375E0,1.769763790E-2,-1.866629571E-1,-5.777039751E-2
9.097471875E0,5.916666240E-3,-1.702045053E-1,-4.874704406E-2
9.102435937E0,5.916666240E-3,-1.702045053E-1,-4.874704406E-2
9.107398437E0,8.552113432E-4,-1.914277077E-1,-4.522148147E-2
9.112362500E0,8.552113432E-4,-1.914277077E-1,-4.522148147E-2
9.117325000E0,2.827433404E-3,-2.081130594E-1,-4.307472706E-2
9.122289062E0,2.827433404E-3,-2.081130594E-1,-4.307472706E-2
9.127251562E0,6.440265104E-3,-2.328443676E-1,-4.185299575E-2
9.132214062E0,6.440265104E-3,-2.328443676E-1,-4.185299575E-2
9.137178125E0,8.796459064E-3,-2.316749990E-1,-3.946189582E-2
9.142140625E0,8.796459064E-3,-2.316749990E-1,-3.946189582E-2
9.147104687E0,8.761553094E-3,-2.278178334E-1,-3.900810704E-2
9.152067187E0,8.761553094E-3,-2.278178334E-1,-3.900810704E-2
9.157031250E0,1.125737373E-2,-2.242573500E-1,-4.103269055E-2
9.161993750E0,1.125737373E-2,-2.242573500E-1,-4.103269055E-2
9.166956250E0,1.851794310E-2,-2.334377915E-1,-4.625122622E-2
9.171920312E0,1.851794310E-2,-2.334377915E-1,-4.625122622E-2
9.176882812E0,2.399827726E-2,-2.132792324E-1,-5.038765445E-2
9.181846875E0,2.399827726E-2,-2.132792324E-1,-5.038765445E-2
9.186809375E0,3.857177682E-3,-3.464478627E-2,-1.014036313E-2
9.191773437E0,3.857177682E-3,-3.464478627E-2,-1.014036313E-2
9.196735937E0,1.427679323E-2,-1.571494490E-1,-5.281366408E-2
9.201698437E0,1.427679323E-2,-1.571494490E-1,-5.281366408E-2
9.206662500E0,1.041961554E-2,-1.092052534E-1,-4.337143153E-2
9.211625000E0,1.041961554E-2,-1.092052534E-1,-4.337143153E-2
9.216589062E0,8.639379404E-3,-9.300859272E-2,-3.481931984E-2
9.221551562E0,8.639379404E-3,-9.300859272E-2,-3.481931984E-2
9.226515625E0,5.427973811E-3,-5.628686771E-2,-2.661627159E-2
9.231478125E0,5.427973811E-3,-5.628686771E-2,-2.661627159E-2
9.236440625E0,2.775073517E-3,-2.352703735E-2,-2.124065720E-2
9.241404687E0,2.775073517E-3,-2.352703735E-2,-2.124065720E-2
9.246367187E0,3.351032268E-3,3.712315485E-2,-1.500983164E-2
9.251331250E0,3.351032268E-3,3.712315485E-2,-1.500983164E-2
9.256293750E0,8.307767101E-3,9.484118968E-2,-1.000073645E-2
9.261256250E0,8.307767101E-3,9.484118968E-2,-1.000073645E-2
9.266220312E0,1.324704941E-2,1.095543131E-1,-9.861109778E-3
9.271182812E0,1.324704941E-2,1.095543131E-1,-9.861109778E-3
9.276146875E0,2.862340072E-3,2.375393175E-2,-1.972222002E-3
9.281109375E0,2.862340072E-3,2.375393175E-2,-1.972222002E-3
9.286073437E0,1.673770696E-2,1.228886321E-1,-1.115265395E-2
9.291035937E0,1.673770696E-2,1.228886321E-1,-1.115265395E-2
9.295998437E0,4.363323096E-3,2.115339041E-2,-2.373647876E-3
9.300962500E0,4.363323096E-3,2.115339041E-2,-2.373647876E-3
9.305925000E0,5.358160939E-3,2.300344035E-2,-3.543018363E-3
9.310889062E0,5.358160939E-3,2.300344035E-2,-3.543018363E-3
9.315851562E0,5.218534265E-3,2.410299703E-2,-5.393067375E-3
9.320815625E0,5.218534265E-3,2.410299703E-2,-5.393067375E-3
9.325778125E0,4.694935866E-3,2.403318323E-2,-6.440265104E-3
9.330740625E0,4.694935866E-3,2.403318323E-2,-6.440265104E-3
9.335704687E0,4.415682983E-3,2.413790300E-2,-6.073745899E-3
9.340667187E0,4.415682983E-3,2.413790300E-2,-6.073745899E-3
9.345631250E0,4.328416660E-3,3.040363453E-2,-4.834562074E-3
9.350593750E0,4.328416660E-3,3.040363453E-2,-4.834562074E-3
9.355556250E0,4.276056774E-3,3.635520861E-2,-3.839724232E-3
9.360520312E0,4.276056774E-3,3.635520861E-2,-3.839724232E-3
9.365482812E0,4.171337001E-3,4.251622036E-2,-3.089232836E-3
9.370446875E0,4.171337001E-3,4.251622036E-2,-3.089232836E-3
9.375409375E0,4.066617228E-3,4.733332992E-2,-2.583087189E-3
9.380373437E0,4.066617228E-3,4.733332992E-2,-2.583087189E-3
9.385335937E0,4.031710327E-3,5.440191180E-2,-1.431170036E-3
9.390298437E0,4.031710327E-3,5.440191180E-2,-1.431170036E-3
9.395260937E0,3.804817796E-3,5.689773336E-2,-1.396263397E-4
9.400225000E0,3.804817796E-3,5.689773336E-2,-1.396263397E-4
9.405187500E0,3.263765713E-3,5.843362212E-2,1.343903481E-3
9.410151562E0,3.263765713E-3,5.843362212E-2,1.343903481E-3
9.415114062E0,2.391101094E-3,6.738716364E-2,2.844886621E-3
9.420078125E0,2.391101094E-3,6.738716364E-2,2.844886621E-3
9.425040625E0,1.186823938E-3,7.529350370E-2,4.049163777E-3
9.430004687E0,1.186823938E-3,7.529350370E-2,4.049163777E-3
9.434967187E0,2.443460980E-4,8.054694533E-2,4.956734832E-3
9.439931250E0,2.443460980E-4,8.054694533E-2,4.956734832E-3
9.444893750E0,2.792526793E-4,8.637634665E-2,6.038838997E-3
9.449857812E0,2.792526793E-4,8.637634665E-2,6.038838997E-3
9.454820312E0,9.424777818E-4,8.794713765E-2,6.544984877E-3
9.459782812E0,9.424777818E-4,8.794713765E-2,6.544984877E-3
9.464745312E0,1.239183708E-3,9.136798233E-2,7.068583276E-3
9.469709375E0,1.239183708E-3,9.136798233E-2,7.068583276E-3
9.474671875E0,1.221730490E-3,8.843583614E-2,6.736970972E-3
9.479635937E0,1.221730490E-3,8.843583614E-2,6.736970972E-3
9.484598437E0,1.186823938E-3,8.574802428E-2,6.265731994E-3
9.489560937E0,1.186823938E-3,8.574802428E-2,6.265731994E-3
9.494525000E0,6.318091881E-3,4.457745552E-1,3.200933710E-2
9.499489062E0,6.318091881E-3,4.457745552E-1,3.200933710E-2
9.504451562E0,6.091198884E-3,3.909537494E-1,2.806489356E-2
9.509414062E0,6.091198884E-3,3.909537494E-1,2.806489356E-2
9.514378125E0,7.103490178E-3,3.488913178E-1,2.488839440E-2
9.519340625E0,7.103490178E-3,3.488913178E-1,2.488839440E-2
9.524304687E0,1.010545623E-2,2.946464717E-1,1.940806210E-2
9.529267187E0,1.010545623E-2,2.946464717E-1,1.940806210E-2
9.534229687E0,1.214749180E-2,2.565110326E-1,1.221730467E-2
9.539193750E0,1.214749180E-2,2.565110326E-1,1.221730467E-2
9.544156250E0,1.364847459E-2,1.929985136E-1,7.330382941E-4
9.549120312E0,1.364847459E-2,1.929985136E-1,7.330382941E-4
9.554082812E0,2.073451132E-2,1.502379477E-1,-1.021017600E-2
9.559046875E0,2.073451132E-2,1.502379477E-1,-1.021017600E-2
9.564009375E0,3.113667294E-2,9.119345248E-2,-1.904154196E-2
9.568973437E0,3.113667294E-2,9.119345248E-2,-1.904154196E-2
9.573935937E0,3.724532574E-2,4.562290758E-2,-2.558652684E-2
9.578898437E0,3.724532574E-2,4.562290758E-2,-2.558652684E-2
9.583862500E0,3.605850041E-2,2.883283980E-2,-2.970550396E-2
9.588826562E0,3.605850041E-2,2.883283980E-2,-2.970550396E-2
9.593789062E0,3.319616243E-2,-1.858775690E-2,-3.607595712E-2
9.598753125E0,3.319616243E-2,-1.858775690E-2,-3.607595712E-2
9.603715625E0,2.855358645E-2,-3.101450019E-2,-3.937462717E-2
9.608678125E0,2.855358645E-2,-3.101450019E-2,-3.937462717E-2
9.613640625E0,2.427753061E-2,-1.504473854E-2,-3.808308393E-2
9.618604687E0,2.427753061E-2,-1.504473854E-2,-3.808308393E-2
9.623567187E0,2.190388180E-2,-3.700098023E-3,-3.419100121E-2
9.628531250E0,2.190388180E-2,-3.700098023E-3,-3.419100121E-2
9.633493750E0,2.019345947E-2,2.094395168E-4,-2.907718532E-2
9.638457812E0,2.019345947E-2,2.094395168E-4,-2.907718532E-2
9.643420312E0,1.766273193E-2,-1.850049011E-3,-2.450442314E-2
9.648382812E0,1.766273193E-2,-1.850049011E-3,-2.450442314E-2
9.653346875E0,1.603957638E-2,-1.692969352E-3,-2.150245570E-2
9.658310937E0,1.603957638E-2,-1.692969352E-3,-2.150245570E-2
9.663271875E0,1.401499379E-2,-3.996803891E-3,-1.712168008E-2
9.668235937E0,1.401499379E-2,-3.996803891E-3,-1.712168008E-2
9.673198437E0,1.226966456E-2,6.911503617E-3,-6.527531426E-3
9.678162500E0,1.226966456E-2,6.911503617E-3,-6.527531426E-3
9.683126562E0,1.197295822E-2,3.424336016E-2,1.031489577E-2
9.688089062E0,1.197295822E-2,3.424336016E-2,1.031489577E-2
9.693053125E0,1.021017600E-2,4.904375225E-2,2.401573025E-2
9.698015625E0,1.021017600E-2,4.904375225E-2,2.401573025E-2
9.702978125E0,6.527531426E-3,5.099852011E-2,2.834414691E-2
9.707942187E0,6.527531426E-3,5.099852011E-2,2.834414691E-2
9.712904687E0,1.902408898E-3,6.410594285E-2,2.663372457E-2
9.717867187E0,1.902408898E-3,6.410594285E-2,2.663372457E-2
9.722831250E0,-2.268928103E-3,7.946483791E-2,2.022836544E-2
9.727795312E0,-2.268928103E-3,7.946483791E-2,2.022836544E-2
9.732756250E0,-6.213372108E-3,7.185520232E-2,1.127482671E-2
9.737720312E0,-6.213372108E-3,7.185520232E-2,1.127482671E-2
9.742682812E0,-1.062905509E-2,9.049531817E-2,6.387905218E-3
9.747646875E0,-1.062905509E-2,9.049531817E-2,6.387905218E-3
9.752609375E0,-1.361356769E-2,1.067443341E-1,6.684611086E-3
9.757573437E0,-1.361356769E-2,1.067443341E-1,6.684611086E-3
9.762537500E0,-1.452113967E-2,1.079311594E-1,-2.146754880E-3
9.767500000E0,-1.452113967E-2,1.079311594E-1,-2.146754880E-3
9.772462500E0,-1.162389293E-2,1.424537748E-1,-1.631882787E-2
9.777426562E0,-1.162389293E-2,1.424537748E-1,-1.631882787E-2
9.782389062E0,-7.784168236E-3,1.204626262E-1,-3.434807807E-2
9.787353125E0,-7.784168236E-3,1.204626262E-1,-3.434807807E-2
9.792314062E0,-4.904375412E-3,1.207942367E-1,-4.335397854E-2
9.797279687E0,-4.904375412E-3,1.207942367E-1,-4.335397854E-2
9.802240625E0,-2.286381321E-3,1.205324382E-1,-4.323180392E-2
