"Time (s)","Linear Acceleration x (m/s^2)","Linear Acceleration y (m/s^2)","Linear Acceleration z (m/s^2)"
0.000000000E0,9.156999588E-1,4.238999784E-1,1.846499920E0
9.925000000E-3,9.382999539E-1,5.449000001E-1,1.422799945E0
1.985156200E-2,5.439000130E-1,5.011999607E-1,5.598999858E-1
2.977812500E-2,3.624999821E-1,6.179000139E-1,-4.176999927E-1
3.970468700E-2,1.876999885E-1,6.697999835E-1,-7.509999871E-1
4.963125000E-2,7.509999722E-2,5.825999975E-1,-8.377999663E-1
5.955781200E-2,9.999999776E-3,3.350999951E-1,-6.240999699E-1
6.948281200E-2,-7.199999690E-2,3.164999783E-1,-3.513000011E-1
7.940937500E-2,3.725000024E-1,2.301999927E-1,4.558999836E-1
8.933593700E-2,-2.134999931E-1,9.659999609E-2,6.909999996E-2
9.926250000E-2,-1.411999911E-1,1.000999957E-1,-3.948999941E-1
1.091890620E-1,-3.357000053E-1,1.810999960E-1,2.310999930E-1
1.191156250E-1,1.314000040E-1,9.950000048E-2,1.779599905E0
1.290421870E-1,8.529999852E-2,3.456999958E-1,8.066999912E-1
1.389687500E-1,-1.256999969E-1,4.240999818E-1,-2.773000002E-1
1.488937500E-1,-2.368000001E-1,3.847999871E-1,-1.187099934E0
1.588203120E-1,-1.697999984E-1,4.485999942E-1,-1.288800001E0
1.687468750E-1,1.999999955E-2,3.773999810E-1,-4.818999767E-1
1.786734370E-1,1.109999940E-1,3.321999907E-1,2.671999931E-1
1.886000000E-1,4.239999875E-2,3.722999990E-1,7.860999703E-1
1.985265620E-1,2.449999936E-2,5.041999817E-1,8.319999576E-1
2.084531250E-1,4.010000080E-2,4.834999740E-1,6.338999867E-1
2.183781250E-1,2.129999921E-2,4.724999964E-1,2.534999847E-1
2.283062500E-1,7.599999662E-3,4.786999822E-1,-4.250000045E-2
2.382312500E-1,-3.159999847E-2,4.083999991E-1,-2.074999958E-1
2.481578120E-1,-4.499999806E-3,3.992999792E-1,-1.596999913E-1
2.580843750E-1,-4.499999806E-2,3.862999976E-1,-9.829999506E-2
2.680109370E-1,1.140999943E-1,2.894999981E-1,-2.389999852E-2
2.779375000E-1,1.242999956E-1,2.457999885E-1,8.700000122E-3
2.878625000E-1,1.350999922E-1,2.118999958E-1,-1.475999951E-1
2.977890620E-1,2.119999938E-2,2.043999881E-1,-2.439999878E-1
3.077156250E-1,-6.329999864E-2,2.057999969E-1,-2.733999789E-1
3.176421870E-1,-3.049999848E-2,1.788999885E-1,-1.261999905E-1
3.275687500E-1,-1.217999980E-1,1.723999977E-1,5.999999703E-4
3.374953120E-1,-1.523000002E-1,2.459999919E-1,-3.109999932E-2
3.474203120E-1,-1.966999918E-1,3.115999997E-1,-7.159999758E-2
3.573468750E-1,-2.615000010E-1,2.204999924E-1,-2.096999884E-1
3.672734370E-1,-1.164999977E-1,2.272999883E-1,-1.969999969E-1
3.772000000E-1,-7.140000165E-2,2.845999897E-1,-1.299999934E-2
3.871265620E-1,6.099999696E-2,3.037999868E-1,8.879999816E-2
3.970531250E-1,1.972000003E-1,2.742999792E-1,1.831000000E-1
4.069796870E-1,2.388999909E-1,1.387999952E-1,2.037999928E-1
4.169046870E-1,4.167999923E-1,1.336999983E-1,1.955999881E-1
4.268312500E-1,4.185999930E-1,1.696999967E-1,1.155999973E-1
4.367593750E-1,2.648999989E-1,2.423999906E-1,3.691999912E-1
4.466843750E-1,1.758999974E-1,2.703999877E-1,4.280999899E-1
4.566109370E-1,2.002999932E-1,2.489999980E-1,1.978999972E-1
4.665375000E-1,1.686999947E-1,2.518999875E-1,3.350000083E-2
4.764640620E-1,9.690000117E-2,1.727000028E-1,-1.164999977E-1
4.863890620E-1,-2.489999868E-2,2.407999933E-1,-9.499999881E-2
4.963156250E-1,-1.915999949E-1,2.529000044E-1,-2.199999988E-3
5.062421870E-1,-3.375000060E-1,2.886999846E-1,-8.259999752E-2
5.161687500E-1,-3.781999946E-1,3.017999828E-1,-2.020999938E-1
5.260953120E-1,-2.998999953E-1,4.060999751E-1,-1.803999990E-1
5.360218750E-1,-1.322999895E-1,3.386999965E-1,-5.659999698E-2
5.459484370E-1,-5.629999936E-2,3.725000024E-1,7.759999484E-2
5.558734370E-1,6.260000169E-2,4.041999876E-1,3.186999857E-1
5.658000000E-1,9.800000116E-3,4.135999978E-1,4.141999781E-1
5.757265620E-1,4.779999703E-2,3.466999829E-1,2.676999867E-1
5.856531250E-1,1.059999987E-1,3.182999790E-1,1.324999928E-1
5.955796870E-1,1.903999895E-1,2.858999968E-1,-8.339999616E-2
6.055062500E-1,2.151999921E-1,2.363999933E-1,-1.535999924E-1
6.154312500E-1,2.105999887E-1,2.052000016E-1,-3.309999779E-2
6.253578120E-1,1.212999970E-1,2.140999883E-1,5.599999800E-3
6.352843750E-1,3.489999846E-2,1.647000015E-1,4.459999874E-2
6.452109370E-1,6.960000098E-2,1.287999898E-1,6.539999694E-2
6.551375000E-1,4.199999850E-3,1.171999946E-1,2.058999985E-1
6.650625000E-1,4.699999932E-3,8.139999956E-2,6.839999557E-2
6.749890620E-1,-1.061000004E-1,1.618999988E-1,4.779999703E-2
6.849156250E-1,-1.481000036E-1,1.352999955E-1,6.709999591E-2
6.948406250E-1,-2.457999885E-1,1.130999997E-1,-5.329999700E-2
7.047671870E-1,-2.450999916E-1,1.527999938E-1,-9.529999644E-2
7.146953120E-1,-2.011999935E-1,1.893000007E-1,-2.969000041E-1
7.246218750E-1,-1.158999950E-1,2.440999895E-1,-3.544999957E-1
7.345484370E-1,-2.269999869E-2,1.882999986E-1,-4.292999804E-1
7.444734370E-1,2.789999917E-2,2.149999887E-1,-3.325999975E-1
7.544000000E-1,5.359999835E-2,2.264999896E-1,-1.361999959E-1
7.643265620E-1,9.160000086E-2,2.639999986E-1,1.521999985E-1
7.742531250E-1,-9.800000116E-3,3.543999791E-1,3.901000023E-1
7.841796870E-1,-7.229999453E-2,4.100999832E-1,4.219000041E-1
7.941062500E-1,-1.317999959E-1,3.601000011E-1,2.581000030E-1
8.040328120E-1,-1.609999985E-1,3.805999756E-1,1.736999899E-1
8.139578120E-1,-3.700000001E-3,3.222000003E-1,1.732999980E-1
8.238843750E-1,1.138999984E-1,3.802999854E-1,2.617000043E-1
8.338109370E-1,6.109999865E-2,3.621000051E-1,3.686999977E-1
8.437359370E-1,2.449999936E-2,4.054999948E-1,3.139999807E-1
8.536625000E-1,-1.579999924E-1,3.129000068E-1,2.308999896E-1
8.635890620E-1,-9.200000018E-2,3.236999810E-1,6.899999827E-2
8.735171870E-1,-9.979999810E-2,3.946000040E-1,-9.019999951E-2
8.834421870E-1,-1.842999905E-1,2.395000011E-1,-2.256999910E-1
8.933671870E-1,-9.889999777E-2,2.054999918E-1,-3.371999860E-1
9.032937500E-1,1.199999941E-3,2.576999962E-1,-2.436999977E-1
9.132203120E-1,-3.999999911E-2,1.964999884E-1,-1.360999942E-1
9.231468750E-1,-1.089999974E-1,2.567999959E-1,-7.800000161E-2
9.330734370E-1,-1.547999978E-1,2.100999951E-1,-1.507000029E-1
9.430000000E-1,-7.919999957E-2,2.243999988E-1,-2.105999887E-1
9.529265620E-1,-3.460000083E-2,1.994999945E-1,-2.603999972E-1
9.628515620E-1,-4.589999840E-2,2.557999790E-1,-2.939999849E-2
9.727781250E-1,-7.029999793E-2,2.560999990E-1,1.920999885E-1
9.827046870E-1,-6.989999861E-2,3.184999824E-1,3.106999993E-1
9.926312500E-1,-6.549999863E-2,2.665999830E-1,2.588999867E-1
1.002557812E0,-5.759999901E-2,2.671999931E-1,1.577999890E-1
1.012484375E0,2.459999919E-2,2.452999949E-1,8.569999784E-2
1.022410937E0,1.213999987E-1,2.881000042E-1,9.939999878E-2
1.032335937E0,8.169999719E-2,2.723000050E-1,1.938999891E-1
1.042262500E0,7.140000165E-2,2.531999946E-1,5.260000005E-2
1.052189062E0,5.829999968E-2,3.649999797E-1,1.916999966E-1
1.062115625E0,1.555999964E-1,3.531000018E-1,2.798999846E-1
1.072042187E0,1.903999895E-1,3.528999984E-1,2.674999833E-1
1.081968750E0,1.018999964E-1,3.255999982E-1,3.555999994E-1
1.091893750E0,8.700000122E-3,3.673999906E-1,3.881999850E-1
1.101820312E0,-1.150000002E-2,4.454999864E-1,2.868999839E-1
1.111746875E0,-7.449999452E-2,3.658999801E-1,2.169999853E-2
1.121675000E0,-1.213999987E-1,4.280000031E-1,-9.039999545E-2
1.131600000E0,-1.731999964E-1,4.812999964E-1,-1.304000020E-1
1.141526562E0,-1.898999959E-1,5.141000152E-1,-2.000999898E-1
1.151453125E0,-1.797999889E-1,5.254999995E-1,-1.938999891E-1
1.161378125E0,-7.549999654E-2,5.092999935E-1,-2.496999949E-1
1.171304687E0,3.099999856E-3,4.584999979E-1,-1.005999967E-1
1.181231250E0,-5.849999934E-2,4.109999835E-1,-1.500000013E-3
1.191157812E0,8.999999613E-3,3.964000046E-1,5.929999799E-2
1.201084375E0,7.429999858E-2,3.993999958E-1,-5.900000036E-2
1.211010937E0,5.969999731E-2,2.858999968E-1,-1.828999966E-1
1.220935937E0,7.580000162E-2,2.786999941E-1,-1.692999899E-1
1.230862500E0,2.008999884E-1,3.382999897E-1,-8.479999751E-2
1.240789062E0,2.201999873E-1,2.536999881E-1,9.380000085E-2
1.250715625E0,2.054999918E-1,2.261999995E-1,3.161999881E-1
1.260642187E0,2.812999785E-1,2.854000032E-1,4.422999918E-1
1.270568750E0,1.136999950E-1,3.296000063E-1,3.468999863E-1
1.280495312E0,-3.199999779E-2,3.735999763E-1,1.603000015E-1
1.290420312E0,-1.436000019E-1,4.204999804E-1,-5.509999767E-2
1.300346875E0,-1.483999938E-1,3.330000043E-1,-7.270000130E-2
1.310273437E0,-7.809999585E-2,2.924000025E-1,8.280000091E-2
1.320200000E0,5.619999766E-2,3.206999898E-1,1.305000037E-1
1.330126562E0,7.769999653E-2,3.499999940E-1,1.021999940E-1
1.340053125E0,-2.999999933E-2,3.838000000E-1,8.919999748E-2
1.349978125E0,-1.702999920E-1,3.924999833E-1,-1.174999997E-1
1.359904687E0,-2.527000010E-1,3.113999963E-1,-2.589999884E-2
1.369831250E0,-3.281999826E-1,5.230999589E-1,2.872000039E-1
1.379757812E0,-3.892999887E-1,5.040999651E-1,5.691999793E-1
1.389684375E0,-3.118999898E-1,5.418999791E-1,3.360999823E-1
1.399610937E0,-1.347000003E-1,5.791999698E-1,-2.263000011E-1
1.409537500E0,1.819999889E-2,4.637999833E-1,-5.557000041E-1
1.419462500E0,1.527999938E-1,4.323999882E-1,-5.130999684E-1
1.429389062E0,2.920999825E-1,3.418000042E-1,-2.400999963E-1
1.439315625E0,3.181999922E-1,3.070999980E-1,-1.409999933E-2
1.449242187E0,3.907999992E-1,2.658999860E-1,9.829999506E-2
1.459168750E0,5.137999654E-1,1.435000002E-1,-1.809999906E-2
1.469095312E0,4.623999894E-1,1.729999930E-1,-9.789999574E-2
1.479021875E0,2.083999962E-1,1.493999958E-1,1.200999990E-1
1.488946875E0,-5.929999799E-2,1.380999982E-1,2.601999938E-1
1.498873437E0,-3.085999787E-1,2.407999933E-1,2.391999960E-1
1.508800000E0,-2.999999821E-1,2.137999982E-1,8.659999818E-2
1.518726562E0,-1.807999909E-1,1.596999913E-1,5.299999844E-3
1.528653125E0,-1.789999940E-2,8.980000019E-2,-1.219999939E-1
1.538579687E0,4.789999872E-2,1.149999946E-1,-6.689999998E-2
1.548506250E0,-1.449999958E-1,1.416999996E-1,3.619999811E-2
1.558432812E0,-2.280000001E-1,1.008000001E-1,-5.599999800E-3
1.568357812E0,-1.657999903E-1,1.241999939E-1,-1.858000010E-1
1.578284375E0,-1.921999902E-1,7.759999484E-2,-3.657999933E-1
1.588210937E0,-1.675999910E-1,7.270000130E-2,-2.516999841E-1
1.598137500E0,-6.209999695E-2,1.186999977E-1,3.170000017E-2
1.608062500E0,5.699999630E-3,1.570999920E-1,2.305999994E-1
1.617989062E0,1.837999970E-1,1.794999987E-1,2.989999950E-1
1.627915625E0,3.546999991E-1,2.122999877E-1,1.181999967E-1
1.637842187E0,3.388999999E-1,1.485999972E-1,7.809999585E-2
1.647768750E0,2.942999899E-1,1.532000005E-1,7.800000161E-2
1.657695312E0,3.346999884E-1,1.463999897E-1,5.399999674E-3
1.667621875E0,2.132999897E-1,1.109999940E-1,5.309999734E-2
1.677546875E0,9.239999950E-2,1.284999996E-1,1.348000020E-1
1.687473437E0,5.859999731E-2,1.782999933E-1,2.586999834E-1
1.697401562E0,3.049999848E-2,1.718999892E-1,3.319999874E-1
1.707326562E0,1.030000020E-2,2.468999922E-1,3.317999840E-1
1.717253125E0,-4.120000079E-2,2.446999997E-1,2.703999877E-1
1.727179687E0,-1.265999973E-1,3.058999777E-1,1.110999957E-1
1.737106250E0,-2.797999978E-1,2.543999851E-1,-1.511999965E-1
1.747032812E0,-3.046000004E-1,2.331999987E-1,-2.298999876E-1
1.756957812E0,-2.671000063E-1,1.961999983E-1,-2.775999904E-1
1.766884375E0,-9.119999409E-2,7.519999892E-2,-3.876000047E-1
1.776810937E0,1.727999896E-1,-9.420000017E-2,-4.276999831E-1
1.786737500E0,3.665999770E-1,-2.757000029E-1,-3.285000026E-1
1.796664062E0,4.848999977E-1,-4.125999808E-1,-2.644999921E-1
1.806590625E0,4.625999928E-1,-4.612999856E-1,-9.929999709E-2
1.816517187E0,2.264999896E-1,-4.202999771E-1,2.211999893E-1
1.826443750E0,-3.739999980E-2,-3.563999832E-1,3.427000046E-1
1.836368750E0,-1.569999903E-1,-2.078999877E-1,2.403999865E-1
1.846293750E0,-1.924999952E-1,-1.313000023E-1,1.468999982E-1
1.856220312E0,-5.529999733E-2,-2.159999870E-2,-1.253999919E-1
1.866148437E0,-2.246999890E-1,2.689999901E-2,-2.430000007E-1
1.876073437E0,-4.713999927E-1,1.301999986E-1,-1.149000004E-1
1.886000000E0,-5.465999842E-1,1.987999976E-1,6.059999764E-2
1.895926562E0,-4.912999868E-1,3.222999871E-1,2.296999991E-1
1.905853125E0,-1.353999972E-1,3.607999980E-1,4.280999899E-1
1.915778125E0,2.477999926E-1,4.851000011E-1,4.179999828E-1
1.925704687E0,2.608999908E-1,5.845000148E-1,4.688999951E-1
1.935632812E0,3.042999804E-1,6.596999764E-1,2.451999933E-1
1.945559375E0,1.825999916E-1,6.974999905E-1,-3.359999880E-2
1.955484375E0,1.180000007E-1,8.233999610E-1,-1.096000001E-1
1.965410937E0,-1.979999989E-2,9.994999766E-1,-1.732999980E-1
1.975337500E0,7.400000002E-3,1.078799963E0,-2.040999979E-1
1.985262500E0,-2.699999837E-3,1.198699951E0,-1.648999900E-1
1.995189062E0,-4.719999805E-2,1.339299917E0,1.748999953E-1
2.005117187E0,-9.739999473E-2,1.405300021E0,2.996000051E-1
2.015043750E0,-6.379999965E-2,1.384199977E0,1.832000017E-1
2.024970312E0,4.089999944E-2,1.420199990E0,3.728999794E-1
2.034895312E0,6.169999763E-2,1.436299920E0,5.551999807E-1
2.044821875E0,-4.299999680E-3,1.435099959E0,6.961999536E-1
2.054746875E0,-4.979999736E-2,1.425099969E0,6.105999947E-1
2.064673437E0,3.499999875E-3,1.189800024E0,2.610000074E-1
2.074600000E0,5.339999869E-2,1.004699945E0,6.740000099E-2
2.084526562E0,9.600000083E-2,8.736000061E-1,-1.261999905E-1
2.094453125E0,6.689999998E-2,7.621999979E-1,-1.123999953E-1
2.104379687E0,8.559999615E-2,5.974000096E-1,-1.506000012E-1
2.114304687E0,8.729999512E-2,3.664999902E-1,-1.958999932E-1
2.124231250E0,6.610000134E-2,2.527000010E-1,-2.454999983E-1
2.134157812E0,-1.159999985E-2,1.297999918E-1,-3.298999965E-1
2.144084375E0,-7.100000046E-3,1.750000007E-2,-2.946999967E-1
2.154012500E0,-1.203999966E-1,-5.999999703E-4,-4.189999774E-2
2.163937500E0,-1.807999909E-1,7.189999521E-2,5.077999830E-1
2.173862500E0,-2.463999987E-1,9.529999644E-2,6.527000070E-1
2.183789062E0,-5.849999934E-2,1.329999976E-2,2.642999887E-1
2.193715625E0,8.240000159E-2,4.479999840E-2,-1.730999947E-1
2.203642187E0,-1.389999967E-2,1.286000013E-1,-3.111000061E-1
2.213568750E0,9.499999695E-3,1.096999943E-1,-2.030999959E-1
2.223495312E0,-1.354999989E-1,1.155999973E-1,-1.329999976E-2
2.233421875E0,-1.455999911E-1,3.289999813E-2,1.533000022E-1
2.243346875E0,-1.480000000E-2,1.245999932E-1,1.266999990E-1
2.253273437E0,-2.016000003E-1,5.439999700E-2,-2.140000015E-1
2.263200000E0,-2.707000077E-1,4.759999737E-2,-4.123999774E-1
2.273126562E0,-1.287000030E-1,-2.239999920E-2,-4.616999924E-1
2.283053125E0,-1.189999934E-2,-8.439999819E-2,-3.526999950E-1
2.292979687E0,2.173999995E-1,-1.109999940E-1,8.370000124E-2
2.302906250E0,2.969999909E-1,-1.720999926E-1,3.048000038E-1
2.312831250E0,2.474000007E-1,-9.299999475E-2,2.518999875E-1
2.322757812E0,7.369999588E-2,2.989999950E-2,1.385999918E-1
2.332684375E0,-2.699999884E-2,5.419999734E-2,-1.238999963E-1
2.342610937E0,-1.155999973E-1,1.376999915E-1,-3.594000041E-1
2.352537500E0,-1.732999980E-1,2.145999968E-1,-5.220000148E-1
2.362464062E0,-4.699999839E-2,1.864999980E-1,-3.914999962E-1
2.372395312E0,6.699999794E-3,2.408999950E-1,-8.399999887E-2
2.382315625E0,7.789999992E-2,3.761999905E-1,7.270000130E-2
2.392242187E0,2.295999974E-1,3.062999845E-1,1.335999966E-1
2.402168750E0,3.129999936E-1,2.399999946E-1,5.005999804E-1
2.412095312E0,2.949999869E-1,3.495000005E-1,7.687999606E-1
2.422021875E0,2.644000053E-1,3.042999804E-1,8.829999566E-1
2.431948437E0,4.690000042E-2,4.335999787E-1,6.001999974E-1
2.441875000E0,-1.847999990E-1,4.638999999E-1,1.700000018E-1
2.451800000E0,-3.835999966E-1,5.026999712E-1,-1.948999912E-1
2.461726562E0,-4.629999995E-1,4.730999768E-1,-3.486999869E-1
2.471653125E0,-3.455999792E-1,4.329999983E-1,-3.052999973E-1
2.481579687E0,-3.834999800E-1,4.055999815E-1,-2.906000018E-1
2.491506250E0,-3.154999912E-1,3.613999784E-1,-4.711999893E-1
2.501432812E0,-1.850000024E-1,3.123999834E-1,-5.097000003E-1
2.511357812E0,-4.900000058E-3,2.979999781E-1,-1.651999950E-1
2.521284375E0,1.702999920E-1,3.168999851E-1,3.410999775E-1
2.531210937E0,2.281999886E-1,2.883000076E-1,6.746000051E-1
2.541137500E0,5.026999712E-1,2.806999981E-1,5.162999630E-1
2.551064062E0,5.744000077E-1,2.406999916E-1,1.960999966E-1
2.560990625E0,6.291999817E-1,1.825999916E-1,-7.639999688E-2
2.570917187E0,5.439999700E-1,2.303999960E-1,-1.084999964E-1
2.580842187E0,3.043999970E-1,2.255999893E-1,-7.419999689E-2
2.590768750E0,8.799999952E-2,2.874999940E-1,-1.709999889E-2
2.600695312E0,-1.019999981E-1,3.087999821E-1,5.570000038E-2
2.610621875E0,-2.590999901E-1,2.942999899E-1,-1.169999968E-2
2.620548437E0,-2.628999949E-1,3.555999994E-1,3.099999949E-2
2.630475000E0,-2.689999938E-1,4.177999794E-1,6.390000135E-2
2.640400000E0,-2.403999865E-1,5.490999818E-1,1.950000040E-2
2.650326562E0,-2.982999980E-1,4.945999980E-1,1.640000008E-2
2.660253125E0,-3.175999820E-1,5.105999708E-1,-6.859999895E-2
2.670179687E0,-1.937000006E-1,5.076999664E-1,-6.350000203E-2
2.680106250E0,-1.218999997E-1,4.537999928E-1,-1.586999893E-1
2.690032812E0,-2.639999986E-2,3.712999821E-1,-1.472000033E-1
2.699959375E0,5.549999699E-2,4.375999868E-1,4.829999804E-2
2.709884375E0,1.580999941E-1,3.770000041E-1,8.919999748E-2
2.719810937E0,1.468999982E-1,3.775999844E-1,2.140999883E-1
2.729737500E0,1.160999984E-1,4.111000001E-1,2.164999992E-1
2.739664062E0,4.559999704E-2,3.601999879E-1,2.425999939E-1
2.749590625E0,3.959999979E-2,3.947999775E-1,1.149999946E-1
2.759517187E0,4.629999772E-2,3.603000045E-1,4.609999806E-2
2.769443750E0,7.069999725E-2,2.842999995E-1,2.329999954E-2
2.779368750E0,3.579999879E-2,2.836999893E-1,-5.829999968E-2
2.789295312E0,-7.029999793E-2,2.132999897E-1,2.799999900E-2
2.799221875E0,-9.259999543E-2,2.199999988E-1,-7.849999517E-2
2.809148437E0,-3.039999865E-2,1.656999886E-1,-1.779999882E-1
2.819075000E0,-3.900000080E-2,1.667999923E-1,-3.003000021E-1
2.829001562E0,-5.929999799E-2,1.275999993E-1,-4.347999990E-1
2.838926562E0,-1.819999889E-2,1.279999912E-1,-3.502999842E-1
2.848853125E0,-6.399999838E-3,1.421999931E-1,-1.801999956E-1
2.858779687E0,-4.989999905E-2,1.606999934E-1,2.055999935E-1
2.868706250E0,-1.679999940E-2,1.823999882E-1,4.637999833E-1
2.878632812E0,-9.399999678E-2,2.479999959E-1,5.029999614E-1
2.888557812E0,-9.109999985E-2,2.472999990E-1,2.430000007E-1
2.898484375E0,-1.799999969E-3,2.768999934E-1,5.029999837E-2
2.908410937E0,7.639999688E-2,2.912999988E-1,-5.599999800E-2
2.918337500E0,7.039999962E-2,3.200999796E-1,-5.040000007E-2
2.928264062E0,1.087999940E-1,3.276000023E-1,7.909999788E-2
2.938190625E0,-1.999999949E-4,3.362999856E-1,4.069999978E-2
2.948117187E0,-1.280999929E-1,3.655000031E-1,2.439999953E-2
2.958042187E0,-1.491999924E-1,3.840000033E-1,-8.449999988E-2
2.967970312E0,-2.699999809E-1,4.418999851E-1,-1.052999943E-1
2.977895312E0,-1.718999892E-1,4.219000041E-1,6.599999964E-3
2.987821875E0,-9.070000052E-2,3.660999835E-1,1.723999977E-1
2.997748437E0,-2.979999967E-2,3.792999983E-1,1.973000020E-1
3.007675000E0,9.510000050E-2,3.939999938E-1,1.884000003E-1
3.017600000E0,1.604000032E-1,3.964000046E-1,4.849999771E-2
3.027528125E0,1.811999977E-1,3.482999802E-1,3.299999982E-3
3.037453125E0,2.736999989E-1,3.371999860E-1,4.999999702E-2
3.047379687E0,2.291999906E-1,2.687999904E-1,1.014999971E-1
3.057306250E0,7.490000129E-2,2.996000051E-1,1.336999983E-1
3.067232812E0,5.339999869E-2,3.361999989E-1,2.511000037E-1
3.077159375E0,9.699999355E-3,3.185999990E-1,-4.899999872E-2
3.087084375E0,2.740000002E-2,2.266999930E-1,-2.372999936E-1
3.097010937E0,1.393999904E-1,1.332999915E-1,-2.106999904E-1
3.106937500E0,4.349999875E-2,1.973000020E-1,-9.669999778E-2
3.116864062E0,-2.339999937E-2,2.102999985E-1,4.219999909E-2
3.126790625E0,-1.589999907E-2,1.574999988E-1,-4.360000044E-2
3.136717187E0,-1.322999895E-1,1.553999931E-1,-8.999999613E-2
3.146643750E0,-4.429999739E-2,2.511999905E-1,-8.659999818E-2
3.156568750E0,-2.161999941E-1,2.494999915E-1,3.350000083E-2
3.166495312E0,-2.651999891E-1,2.865999937E-1,4.189999774E-2
3.176421875E0,-3.076999784E-1,3.393999934E-1,2.181999981E-1
3.186348437E0,-1.560000032E-1,3.639999926E-1,1.424999982E-1
3.196273437E0,-7.169999927E-2,3.885000050E-1,4.699999932E-3
3.206201562E0,1.481999904E-1,4.944999814E-1,-1.456999928E-1
3.216126562E0,1.821999997E-1,4.068000019E-1,4.899999872E-2
3.226053125E0,2.351999879E-1,3.274999857E-1,2.258999944E-1
3.235979687E0,2.175999880E-1,3.304999769E-1,3.197999895E-1
3.245906250E0,1.986999959E-1,3.360999823E-1,2.219999880E-1
3.255831250E0,1.386999935E-1,2.849999964E-1,-1.009999961E-2
3.265757812E0,7.999999821E-2,2.803999782E-1,-3.299999982E-3
3.275684375E0,-3.889999911E-2,3.339000046E-1,1.450999975E-1
3.285610937E0,-5.240000039E-2,3.585999906E-1,2.863999903E-1
3.295537500E0,-9.250000119E-2,3.628000021E-1,1.960999966E-1
3.305464062E0,-6.790000200E-2,3.770999908E-1,7.599999662E-3
3.315390625E0,-1.188999936E-1,4.174999893E-1,-9.470000118E-2
3.325315625E0,-2.395000011E-1,4.493999779E-1,-2.324999869E-1
3.335242187E0,-3.084999919E-1,4.325999916E-1,-4.253000021E-1
3.345168750E0,-2.219999880E-1,3.676999807E-1,-4.493999779E-1
3.355096875E0,-7.140000165E-2,2.576999962E-1,-4.371999800E-1
3.365021875E0,6.140000001E-2,2.298000008E-1,-2.866999805E-1
3.374948437E0,1.476999968E-1,1.859999895E-1,1.999999949E-4
3.384875000E0,1.801999956E-1,1.541000009E-1,1.944999993E-1
3.394800000E0,2.224999964E-1,9.399999678E-2,1.858000010E-1
3.404726562E0,2.265999913E-1,2.799999900E-2,2.938999832E-1
3.414653125E0,1.709999889E-1,5.329999700E-2,2.096999884E-1
3.424579687E0,1.028999984E-1,5.979999900E-2,1.585000008E-1
3.434506250E0,6.799999624E-2,9.510000050E-2,1.251000017E-1
3.444432812E0,-1.100999936E-1,1.591999978E-1,6.589999795E-2
3.454359375E0,-2.158999890E-1,2.575999796E-1,2.699999837E-3
3.464284375E0,-2.205999941E-1,2.590000033E-1,7.490000129E-2
3.474210937E0,-1.929000020E-1,2.611999810E-1,1.061999947E-1
3.484137500E0,-1.250000000E-1,3.427000046E-1,1.189999953E-1
3.494064062E0,3.999999899E-4,3.554999828E-1,9.389999509E-2
3.503990625E0,-6.599999964E-3,3.685999811E-1,3.429999948E-2
3.513917187E0,-4.679999873E-2,3.586999774E-1,-4.849999771E-2
3.523843750E0,1.186999977E-1,3.361999989E-1,-6.409999728E-2
3.533768750E0,1.301999986E-1,3.722999990E-1,-1.769999973E-2
3.543695312E0,1.930999905E-1,3.209999800E-1,3.969999775E-2
3.553621875E0,1.877999902E-1,3.493999839E-1,7.639999688E-2
3.563548437E0,3.920000046E-2,2.933000028E-1,1.453000009E-1
3.573475000E0,-9.569999576E-2,3.565999866E-1,1.653999984E-1
3.583401562E0,-2.026999891E-1,3.671999872E-1,-3.039999865E-2
3.593326562E0,-1.653999984E-1,2.881999910E-1,-6.469999999E-2
3.603253125E0,-1.348000020E-1,3.466999829E-1,-4.559999704E-2
3.613179687E0,-2.290000021E-2,3.449999988E-1,-6.999999750E-4
3.623107812E0,2.909999900E-2,3.543999791E-1,1.557999998E-1
3.633032812E0,1.200999990E-1,4.248999953E-1,1.305000037E-1
3.642959375E0,8.959999681E-2,3.544999957E-1,-1.002999991E-1
3.652885937E0,7.379999757E-2,2.721999884E-1,-1.895999908E-1
3.662812500E0,1.347000003E-1,2.387999892E-1,-1.557999998E-1
3.672739062E0,1.387999952E-1,3.042999804E-1,5.169999972E-2
3.682664062E0,9.669999778E-2,2.847000062E-1,2.418999970E-1
3.692592187E0,1.573999971E-1,2.786999941E-1,1.754999906E-1
3.702517187E0,7.319999486E-2,3.565999866E-1,2.666999996E-1
3.712443750E0,5.759999901E-2,3.978999853E-1,2.507999837E-1
3.722368750E0,-9.889999777E-2,4.438000023E-1,9.739999473E-2
3.732296875E0,-2.630999982E-1,4.637999833E-1,5.099999718E-3
3.742221875E0,-2.506999969E-1,5.123000145E-1,-6.059999764E-2
3.752150000E0,-1.979999989E-1,4.560000002E-1,-1.938000023E-1
3.762075000E0,-1.509999949E-2,4.197999835E-1,-6.570000201E-2
3.772001562E0,1.708000004E-1,3.953000009E-1,-1.409999933E-2
3.781928125E0,2.578999996E-1,2.651000023E-1,5.169999972E-2
3.791854687E0,2.140000015E-1,3.028999865E-1,5.939999968E-2
3.801779687E0,9.910000116E-2,2.865999937E-1,7.149999589E-2
3.811707812E0,-3.680000082E-2,3.102000058E-1,1.358000040E-1
3.821632812E0,-8.190000057E-2,3.421999812E-1,7.099999487E-2
3.831559375E0,-5.879999697E-2,3.705999851E-1,-3.119999915E-2
3.841485937E0,-8.389999717E-2,2.710999846E-1,-6.189999729E-2
3.851412500E0,4.089999944E-2,2.708999813E-1,2.589999884E-2
3.861337500E0,9.200000204E-3,2.669999897E-1,-5.089999735E-2
3.871264062E0,-8.549999446E-2,3.549999893E-1,1.257999986E-1
3.881190625E0,-1.655000001E-1,2.983999848E-1,1.275999993E-1
3.891117187E0,-1.550000012E-1,3.691000044E-1,5.590000004E-2
3.901043750E0,-1.180000007E-1,3.407999873E-1,5.759999901E-2
3.910970312E0,1.189999934E-2,2.724999785E-1,-1.089999974E-1
3.920895312E0,1.101999953E-1,2.964999974E-1,-1.791999936E-1
3.930821875E0,2.041999996E-1,2.238999903E-1,-1.329999976E-2
3.940748437E0,1.608999968E-1,2.133999914E-1,1.013999954E-1
3.950695312E0,1.630999893E-1,2.538000047E-1,1.905999929E-1
3.960601562E0,4.690000042E-2,2.283999920E-1,1.342999935E-1
3.970528125E0,9.519999474E-2,2.072999924E-1,1.272999942E-1
3.980454687E0,9.629999846E-2,2.349999994E-1,1.648999900E-1
3.990379687E0,6.229999661E-2,3.075000048E-1,3.019999899E-2
4.000306250E0,-1.123999953E-1,3.287000060E-1,6.929999590E-2
4.010232812E0,-1.497000009E-1,3.581999838E-1,-2.410000004E-2
4.020159375E0,-2.100999951E-1,3.836999834E-1,-7.059999555E-2
4.030085937E0,-1.277000010E-1,4.642999768E-1,-1.058999971E-1
4.040012500E0,-7.959999889E-2,4.113000035E-1,-4.239999875E-2
4.049939062E0,-2.410000004E-2,3.960999846E-1,-4.539999738E-2
4.059865625E0,2.999999851E-4,4.330999851E-1,5.709999800E-2
4.069790625E0,6.359999627E-2,3.743999898E-1,1.141999960E-1
4.079717187E0,8.219999820E-2,3.461999893E-1,5.209999904E-2
4.089643750E0,1.189999953E-1,2.176999897E-1,-4.399999976E-2
4.099570312E0,1.441999972E-1,2.651999891E-1,-1.216999963E-1
4.109496875E0,1.221999973E-1,2.563999891E-1,7.129999995E-2
4.119421875E0,-6.579999626E-2,3.263999820E-1,1.768999994E-1
4.129348437E0,-3.849999979E-2,2.006999999E-1,1.296999902E-1
4.139275000E0,-4.250000045E-2,2.415999919E-1,2.279999852E-2
4.149201562E0,-1.379999984E-2,1.740999967E-1,-1.196999997E-1
4.159128125E0,5.219999701E-2,2.029999942E-1,-9.099999443E-3
4.169054687E0,8.959999681E-2,1.719999909E-1,2.249999903E-2
4.178981250E0,-4.360000044E-2,2.474999875E-1,-4.900000058E-3
4.188907812E0,-6.560000032E-2,1.846999973E-1,-1.187999994E-1
4.198832812E0,-4.789999872E-2,2.220999897E-1,-9.869999439E-2
4.208759375E0,-4.629999772E-2,2.223999947E-1,1.392000020E-1
4.218685937E0,4.100000020E-3,2.750999928E-1,3.091000021E-1
4.228612500E0,7.129999995E-2,3.300999999E-1,2.753999829E-1
4.238539062E0,-3.240000084E-2,2.671000063E-1,3.179999813E-2
4.248465625E0,2.060000040E-2,2.412999868E-1,-1.295000017E-1
4.258390625E0,5.049999803E-2,2.089999914E-1,-1.881999969E-1
4.268317187E0,1.375000030E-1,1.946999878E-1,-3.879999742E-2
4.278243750E0,1.280999929E-1,2.597999871E-1,8.199999481E-2
4.288168750E0,3.849999979E-2,1.905999929E-1,4.889999703E-2
4.298096875E0,-1.319999993E-1,2.703999877E-1,8.159999549E-2
4.308023437E0,-2.504999936E-1,2.800000012E-1,-5.399999768E-2
4.317948437E0,-2.958999872E-1,2.988999784E-1,3.629999980E-2
4.327875000E0,-2.145999968E-1,3.357999921E-1,-1.979999989E-2
4.337801562E0,-3.469999880E-2,2.868999839E-1,2.489999868E-2
4.347726562E0,1.233999953E-1,2.874000072E-1,1.096999943E-1
4.357653125E0,1.594000012E-1,2.701999843E-1,8.119999617E-2
4.367579687E0,2.581999898E-1,2.166999876E-1,-1.512999982E-1
4.377506250E0,1.644999981E-1,1.949999928E-1,-1.252000034E-1
4.387432812E0,8.969999850E-2,2.230999917E-1,-4.259999841E-2
4.397359375E0,3.370000049E-2,2.206999958E-1,6.199999712E-3
4.407285937E0,-1.034999937E-1,2.011999935E-1,2.032999992E-1
4.417210937E0,-1.393999904E-1,2.935000062E-1,1.846999973E-1
4.427137500E0,-1.362999976E-1,3.537999988E-1,-5.799999926E-3
4.437064062E0,-6.099999696E-2,2.969999909E-1,3.549999744E-2
4.446990625E0,3.810000047E-2,3.200999796E-1,6.610000134E-2
4.456917187E0,6.759999692E-2,3.409999907E-1,1.220999956E-1
4.466843750E0,5.260000005E-2,3.939999938E-1,2.590000033E-1
4.476768750E0,2.009999938E-2,4.282999933E-1,7.609999925E-2
4.486695312E0,-2.039999887E-2,3.610999882E-1,-4.380000010E-2
4.496621875E0,-3.419999778E-2,4.384000003E-1,-7.329999655E-2
4.506548437E0,-5.449999869E-2,4.406999946E-1,1.394999921E-1
4.516476562E0,-3.999999724E-3,4.291999936E-1,1.255999953E-1
4.526401562E0,-2.630000003E-2,4.205999970E-1,1.141999960E-1
4.536328125E0,-7.100000046E-3,3.730999827E-1,1.129999943E-2
4.546253125E0,-1.399999950E-3,4.521999955E-1,-8.219999820E-2
4.556179687E0,4.409999773E-2,4.081999958E-1,-6.759999692E-2
4.566106250E0,-5.649999902E-2,4.509999752E-1,-1.153999940E-1
4.576032812E0,-3.119999915E-2,5.048999786E-1,-6.300000008E-3
4.585959375E0,-6.340000033E-2,3.937999904E-1,1.799999923E-2
4.595885937E0,-7.019999623E-2,3.928000033E-1,4.999999702E-2
4.605812500E0,1.899999939E-2,3.811999857E-1,1.699999906E-3
4.615737500E0,5.689999834E-2,3.337999880E-1,7.129999995E-2
4.625664062E0,4.149999842E-2,3.944999874E-1,1.193999946E-1
4.635590625E0,5.009999871E-2,3.560999930E-1,5.049999803E-2
4.645517187E0,8.699999750E-2,3.073999882E-1,2.740000002E-2
4.655443750E0,-1.249999925E-2,3.107999861E-1,9.030000120E-2
4.665370312E0,-3.029999882E-2,3.217999935E-1,4.930000007E-2
4.675295312E0,-1.449999958E-2,3.215999901E-1,4.169999808E-2
4.685221875E0,3.460000083E-2,2.233999968E-1,-1.579999924E-2
4.695148437E0,7.979999483E-2,2.034999877E-1,-4.160000011E-2
4.705075000E0,6.650000066E-2,2.207999974E-1,-2.659999952E-2
4.715001562E0,3.170000017E-2,2.395000011E-1,2.439999953E-2
4.724928125E0,-1.310000010E-2,2.484999895E-1,3.460000083E-2
4.734854687E0,-1.669999957E-2,2.981999815E-1,6.759999692E-2
4.744781250E0,4.699999932E-3,1.894000024E-1,-4.059999809E-2
4.754706250E0,8.749999851E-2,2.395000011E-1,3.839999810E-2
4.764632812E0,6.229999661E-2,2.195999920E-1,4.499999806E-3
4.774559375E0,1.120999977E-1,1.929000020E-1,1.198999956E-1
4.784485937E0,1.050999984E-1,2.178999931E-1,2.316000015E-1
4.794412500E0,8.299999870E-3,2.769999802E-1,2.694999874E-1
4.804339062E0,-1.108999997E-1,3.827999830E-1,2.063999921E-1
4.814264062E0,-3.989999741E-2,3.199999928E-1,-9.399999864E-3
4.824192187E0,-9.119999409E-2,4.175999761E-1,-1.006999984E-1
4.834117187E0,-5.519999936E-2,3.648999929E-1,-6.749999523E-2
4.844043750E0,-3.869999945E-2,3.959999979E-1,-9.959999472E-2
4.853970312E0,-1.162999943E-1,3.806999922E-1,4.529999942E-2
4.863896875E0,-6.489999592E-2,3.775999844E-1,2.209999971E-2
4.873823437E0,-4.039999843E-2,3.524000049E-1,-1.694999933E-1
4.883748437E0,-3.350000083E-2,3.726999760E-1,-2.791999876E-1
4.893675000E0,-1.869999990E-2,3.648999929E-1,-2.655999959E-1
4.903601562E0,-5.449999869E-2,3.476999998E-1,-1.070000008E-1
4.913528125E0,-9.459999949E-2,3.060999811E-1,2.046999931E-1
4.923454687E0,-2.669999935E-2,3.581999838E-1,3.382999897E-1
4.933381250E0,9.899999946E-2,3.752999902E-1,3.188999891E-1
4.943332812E0,1.173999980E-1,3.657999933E-1,2.298999876E-1
4.953232812E0,1.979999989E-1,2.295999974E-1,1.281999946E-1
4.963159375E0,2.305999994E-1,2.541999817E-1,6.799999624E-3
4.973085937E0,1.604999900E-1,1.999999881E-1,7.459999621E-2
4.983012500E0,1.809999906E-2,2.554999888E-1,2.026000023E-1
4.992939062E0,-1.069999952E-2,2.793000042E-1,9.709999710E-2
5.002865625E0,-6.159999967E-2,2.672999799E-1,-9.919999540E-2
5.012790625E0,-1.176999956E-1,2.527000010E-1,-2.145999968E-1
5.022717187E0,-1.662999988E-1,3.233999908E-1,-1.768999994E-1
5.032643750E0,-1.876999885E-1,3.025999963E-1,-1.184999943E-1
5.042570312E0,-1.348000020E-1,3.638999760E-1,4.299999680E-3
5.052496875E0,2.279999852E-2,3.621999919E-1,9.219999611E-2
5.062423437E0,2.779999934E-2,3.351999819E-1,1.541000009E-1
5.072350000E0,4.539999738E-2,3.270999789E-1,6.700000167E-2
5.082276562E0,1.860000007E-2,3.071999848E-1,-7.800000161E-2
5.092201562E0,-4.169999808E-2,3.348000050E-1,-1.068999991E-1
5.102128125E0,1.699999906E-2,3.146999776E-1,4.490000010E-2
5.112054687E0,-4.989999905E-2,2.851999998E-1,1.537999958E-1
5.121981250E0,-1.770000011E-1,3.251999915E-1,1.187999994E-1
5.131907812E0,-1.374000013E-1,3.163000047E-1,-4.160000011E-2
5.141832812E0,-1.605999917E-1,2.956999838E-1,-1.979999989E-1
5.151759375E0,-7.800000161E-2,2.822999954E-1,-1.887999922E-1
5.161685937E0,-6.399999838E-3,2.390999943E-1,-4.659999907E-2
5.171612500E0,9.619999677E-2,2.676999867E-1,2.328999937E-1
5.181539062E0,1.899999976E-1,2.199999988E-1,2.304999977E-1
5.191465625E0,2.336999923E-1,1.648999900E-1,1.557999998E-1
5.201392187E0,2.874999940E-1,1.700999886E-1,5.769999698E-2
5.211317187E0,1.957999915E-1,1.381999999E-1,8.320000023E-2
5.221243750E0,9.149999917E-2,2.210999876E-1,1.280999929E-1
5.231170312E0,-2.139999904E-2,2.137999982E-1,5.350000039E-2
5.241096875E0,-5.629999936E-2,2.040999979E-1,-4.209999740E-2
5.251023437E0,3.999999899E-4,2.124999911E-1,-1.085999981E-1
5.260950000E0,1.999999955E-2,2.085999995E-1,-9.259999543E-2
5.270875000E0,9.999999776E-3,2.254000008E-1,5.169999972E-2
5.280801562E0,-1.115999967E-1,3.400999904E-1,3.779999912E-2
5.290728125E0,-2.087000012E-1,2.795000076E-1,1.950000040E-2
5.300654687E0,-2.045999914E-1,3.262999952E-1,-7.090000063E-2
5.310581250E0,-2.566999793E-1,3.741999865E-1,-4.849999771E-2
5.320507812E0,-1.563999951E-1,4.007000029E-1,-5.279999971E-2
5.330432812E0,-8.479999751E-2,4.284999967E-1,-1.730000041E-2
5.340359375E0,7.689999789E-2,3.596999943E-1,1.074000001E-1
5.350285937E0,2.131999880E-1,3.692999780E-1,6.129999831E-2
5.360212500E0,2.401999980E-1,2.599999905E-1,2.219999954E-2
5.370139062E0,2.064999938E-1,2.408999950E-1,3.579999879E-2
5.380065625E0,1.055999994E-1,3.513999879E-1,8.469999582E-2
5.389992187E0,-4.409999773E-2,3.050999939E-1,1.651999950E-1
5.399918750E0,-1.009999961E-1,3.759999871E-1,9.169999510E-2
5.409843750E0,-1.176999956E-1,2.998999953E-1,4.429999739E-2
5.419770312E0,-7.400000095E-2,2.992999852E-1,-8.819999546E-2
5.429696875E0,-3.219999745E-2,3.276999891E-1,-3.819999844E-2
5.439623437E0,3.599999845E-2,3.157999814E-1,3.350000083E-2
5.449550000E0,1.210999936E-1,3.446999788E-1,7.779999822E-2
5.459476562E0,1.282999963E-1,2.355999947E-1,2.319999970E-2
5.469401562E0,2.049999982E-1,2.475999892E-1,4.279999807E-2
5.479328125E0,2.210000008E-1,1.913999915E-1,2.909999900E-2
5.489254687E0,2.034999877E-1,2.149999887E-1,8.089999855E-2
5.499181250E0,1.599999964E-1,2.511000037E-1,1.981000006E-1
5.509107812E0,5.570000038E-2,2.217999995E-1,2.255999893E-1
5.519034375E0,-8.259999752E-2,2.983999848E-1,1.873999983E-1
5.528959375E0,-1.587999910E-1,3.237999976E-1,1.057999954E-1
5.538885937E0,-2.468999922E-1,3.224999905E-1,-9.399999678E-2
5.548812500E0,-2.161999941E-1,3.811999857E-1,-2.511000037E-1
5.558739062E0,-1.797999889E-1,4.306999743E-1,-1.162000000E-1
5.568665625E0,-1.238999963E-1,3.443999887E-1,-3.949999809E-2
5.578592187E0,-1.149000004E-1,3.551999927E-1,-9.529999644E-2
5.588517187E0,-1.567000002E-1,4.369999766E-1,-1.253999919E-1
5.598443750E0,-1.988999993E-1,3.862999976E-1,-8.299999684E-2
5.608370312E0,-8.889999986E-2,3.748999834E-1,9.200000204E-3
5.618296875E0,3.489999846E-2,4.343999922E-1,2.050999999E-1
5.628223437E0,2.219999880E-1,4.275999963E-1,2.476999909E-1
5.638150000E0,2.602999806E-1,3.926999867E-1,1.715999991E-1
5.648075000E0,2.472999990E-1,3.217999935E-1,2.256999910E-1
5.658001562E0,3.057999909E-1,3.019999862E-1,1.753999889E-1
5.667928125E0,2.018999904E-1,1.916999966E-1,8.760000020E-2
5.677854687E0,2.375999987E-1,2.249999940E-1,-4.639999941E-2
5.687781250E0,1.697999984E-1,1.589999944E-1,-1.347000003E-1
5.697706250E0,-4.199999943E-2,2.349999994E-1,-9.319999814E-2
5.707632812E0,-1.438999921E-1,1.950999945E-1,-2.338999957E-1
5.717559375E0,-2.565000057E-1,2.685999870E-1,-3.244999945E-1
5.727485937E0,-3.152999878E-1,3.346999884E-1,-1.821999997E-1
5.737412500E0,-3.497000039E-1,3.752999902E-1,-4.149999842E-2
5.747339062E0,-3.322999775E-1,3.416999876E-1,9.189999849E-2
5.757264062E0,-2.173999995E-1,3.825999796E-1,1.733999997E-1
5.767192187E0,-1.395999938E-1,3.893999755E-1,1.938000023E-1
5.777117187E0,6.819999963E-2,3.653999865E-1,1.163999960E-1
5.787045312E0,3.176999986E-1,3.370999992E-1,3.089999966E-2
5.796970312E0,3.076999784E-1,3.571999967E-1,5.759999901E-2
5.806896875E0,2.293999940E-1,3.913999796E-1,2.723000050E-1
5.816823437E0,1.475999951E-1,2.994000018E-1,2.655999959E-1
5.826750000E0,3.489999846E-2,3.556999862E-1,1.817999929E-1
5.836675000E0,4.209999740E-2,3.335999846E-1,6.859999895E-2
5.846603125E0,2.300000051E-3,1.483999938E-1,-1.948999912E-1
5.856528125E0,-4.179999977E-2,2.358999997E-1,-3.691999912E-1
5.866454687E0,-8.410000056E-2,2.436999977E-1,-2.863000035E-1
5.876381250E0,-7.129999995E-2,2.459999919E-1,-4.140000045E-2
5.886307812E0,-9.300000034E-3,2.301999927E-1,4.559999704E-2
5.896232812E0,1.027999967E-1,2.307000011E-1,2.258999944E-1
5.906159375E0,1.507000029E-1,2.166999876E-1,2.043999881E-1
5.916085937E0,1.066999957E-1,2.157000005E-1,2.050999999E-1
5.926012500E0,1.396999955E-1,2.250999957E-1,2.170999944E-1
5.935939062E0,3.549999744E-2,2.965999842E-1,2.532999814E-1
5.945867187E0,-2.609999850E-2,3.516999781E-1,8.449999988E-2
5.955792187E0,-1.656000018E-1,3.987999856E-1,-1.537999958E-1
5.965717187E0,-1.842999905E-1,3.815999925E-1,-2.551999986E-1
5.975643750E0,-1.314999908E-1,3.621999919E-1,-2.050999999E-1
5.985571875E0,-1.341999918E-1,3.542000055E-1,3.599999845E-2
5.995496875E0,-2.039999887E-2,3.692999780E-1,1.033999994E-1
6.005423437E0,5.570000038E-2,2.791000009E-1,-9.999999311E-4
6.015350000E0,3.409999982E-2,2.892999947E-1,-1.569999941E-2
6.025276562E0,1.152999997E-1,2.681999803E-1,-1.530999988E-1
6.035201562E0,7.329999655E-2,2.654999793E-1,-3.799999878E-2
6.045129687E0,-2.029999904E-2,3.237999976E-1,1.375000030E-1
6.055054687E0,1.730000041E-2,3.264999986E-1,1.942999959E-1
6.064981250E0,-7.649999857E-2,4.264999926E-1,1.307999939E-1
6.074907812E0,-9.899999946E-2,4.208999872E-1,7.679999620E-2
6.084834375E0,-6.309999526E-2,2.662000060E-1,-2.799999900E-2
6.094760937E0,3.669999912E-2,2.942999899E-1,-6.269999593E-2
6.104685937E0,1.649999991E-2,3.407000005E-1,-1.480000000E-2
6.114612500E0,8.499999531E-3,2.820999920E-1,9.049999714E-2
6.124539062E0,4.629999772E-2,2.996999919E-1,-2.219999954E-2
6.134465625E0,9.599999525E-3,2.795000076E-1,5.200000014E-3
6.144392187E0,-3.579999879E-2,3.109000027E-1,9.869999439E-2
6.154318750E0,4.879999906E-2,3.313999772E-1,3.019999899E-2
6.164243750E0,1.127000004E-1,2.831999958E-1,1.127999946E-1
6.174170312E0,8.969999850E-2,2.374999970E-1,8.749999851E-2
6.184096875E0,8.679999411E-2,2.991999984E-1,4.169999808E-2
6.194023437E0,1.129999943E-2,2.717999816E-1,7.669999450E-2
6.203950000E0,-1.399999950E-2,2.342999876E-1,2.600000007E-3
6.213876562E0,-2.599999867E-2,3.103999794E-1,-7.229999453E-2
6.223803125E0,-2.600000007E-3,2.474000007E-1,-1.266999990E-1
6.233728125E0,-3.269999847E-2,2.446999997E-1,-4.030000046E-2
6.243654687E0,-2.129999921E-2,2.736999989E-1,1.480000019E-1
6.253581250E0,-2.740000002E-2,2.644999921E-1,1.392000020E-1
6.263507812E0,-1.045999974E-1,3.337000012E-1,3.999999911E-2
6.273434375E0,-1.017000005E-1,3.449999988E-1,-2.009999938E-2
6.283360937E0,-1.399999950E-2,3.147999942E-1,-1.014999971E-1
6.293287500E0,8.410000056E-2,3.596999943E-1,-7.440000027E-2
6.303214062E0,1.197999939E-1,2.569999993E-1,-7.660000026E-2
6.313139062E0,8.540000021E-2,2.351000011E-1,-1.449999958E-2
6.323065625E0,-4.100000020E-3,2.358999997E-1,1.370999962E-1
6.332992187E0,-9.219999611E-2,3.382000029E-1,2.511999905E-1
6.342918750E0,-8.109999448E-2,2.927999794E-1,1.457999945E-1
6.352845312E0,-3.480000049E-2,2.910999954E-1,-2.190999985E-1
6.362771875E0,-1.999999949E-4,2.320999950E-1,-1.015999988E-1
6.372696875E0,2.089999989E-2,2.192000002E-1,-9.529999644E-2
6.382623437E0,7.029999793E-2,2.069000006E-1,1.132999957E-1
6.392550000E0,1.759999990E-2,2.842999995E-1,1.677999943E-1
6.402476562E0,9.479999542E-2,2.399999946E-1,9.229999781E-2
6.412403125E0,9.769999981E-2,2.319999933E-1,-1.109999977E-2
6.422329687E0,5.539999902E-2,2.164999992E-1,5.480000004E-2
6.432254687E0,5.240000039E-2,2.876999974E-1,1.195999980E-1
6.442181250E0,5.319999903E-2,2.434999943E-1,2.043999881E-1
6.452107812E0,6.780000031E-2,2.676999867E-1,1.354999989E-1
6.462034375E0,9.799999744E-2,2.326999903E-1,-1.640000008E-2
6.471960937E0,1.702999920E-1,2.640999854E-1,-7.639999688E-2
6.481887500E0,1.609999873E-2,2.940999866E-1,-1.389999967E-2
6.491812500E0,-7.409999520E-2,2.445999980E-1,1.092000008E-1
6.501739062E0,-1.078999937E-1,2.811000049E-1,2.229999937E-2
6.511665625E0,-9.640000015E-2,3.105999827E-1,6.929999590E-2
6.521592187E0,-8.839999884E-2,2.979999781E-1,-8.919999748E-2
6.531518750E0,-1.252000034E-1,3.795999885E-1,-2.032999992E-1
6.541445312E0,-1.518999934E-1,4.981999993E-1,-1.568000019E-1
6.551371875E0,-2.034000009E-1,4.447999895E-1,-6.499999668E-3
6.561296875E0,-2.107999921E-1,4.393000007E-1,-1.699999906E-2
6.571223437E0,-1.000999957E-1,3.762999773E-1,-1.008000001E-1
6.581150000E0,3.170000017E-2,3.549999893E-1,-7.880000025E-2
6.591076562E0,1.915999949E-1,3.549000025E-1,4.699999839E-2
6.601003125E0,2.451999933E-1,3.075000048E-1,2.800999880E-1
6.610929687E0,2.093999982E-1,2.926999927E-1,3.199999928E-1
6.620856250E0,1.854999959E-1,3.213000000E-1,2.406999916E-1
6.630781250E0,7.009999454E-2,2.513000071E-1,3.579999879E-2
6.640707812E0,-1.169999968E-2,2.644000053E-1,-1.278999895E-1
6.650634375E0,-6.000000052E-3,2.396999896E-1,-2.456000000E-1
6.660560937E0,-7.149999589E-2,2.533999979E-1,-9.369999915E-2
6.670487500E0,-1.950000040E-2,2.610000074E-1,1.711999923E-1
6.680414062E0,3.700000001E-3,2.525999844E-1,2.386999875E-1
6.690340625E0,3.929999843E-2,2.682999969E-1,2.705999911E-1
6.700265625E0,1.589999907E-2,2.768999934E-1,1.391000003E-1
6.710192187E0,-4.050000012E-2,3.497999907E-1,-6.929999590E-2
6.720118750E0,-4.849999771E-2,3.441999853E-1,-2.622999847E-1
6.730045312E0,-1.909999922E-2,3.667999804E-1,-1.924999952E-1
6.739971875E0,-6.499999762E-2,3.617999852E-1,6.199999899E-2
6.749898437E0,-8.579999954E-2,3.403999805E-1,2.137999982E-1
6.759825000E0,-8.299999684E-2,3.314999938E-1,1.790999919E-1
6.769750000E0,4.030000046E-2,2.963999808E-1,4.499999806E-2
6.779676562E0,1.287000030E-1,2.597000003E-1,-8.909999579E-2
6.789603125E0,8.999999845E-4,2.290999889E-1,-7.649999857E-2
6.799529687E0,5.240000039E-2,2.269999981E-1,1.829999872E-2
6.809456250E0,4.309999943E-2,1.773999929E-1,7.989999652E-2
6.819382812E0,9.820000082E-2,1.367999911E-1,-3.519999981E-2
6.829307812E0,1.708000004E-1,1.168999970E-1,-8.100000024E-2
6.839235937E0,1.656000018E-1,9.989999980E-2,1.899999939E-2
6.849160937E0,1.460999995E-1,9.239999950E-2,4.039999843E-2
6.859087500E0,-4.270000011E-2,7.169999927E-2,-1.079999935E-2
6.869014062E0,-1.193999946E-1,1.189999953E-1,-8.799999952E-2
6.878940625E0,-2.446999997E-1,2.527999878E-1,-8.419999480E-2
6.888867187E0,-2.726999819E-1,2.741000056E-1,-1.829999983E-1
6.898792187E0,-3.138999939E-1,2.460999936E-1,-1.668999940E-1
6.908718750E0,-2.081999928E-1,2.714999914E-1,-4.989999905E-2
6.918645312E0,-4.589999840E-2,3.215999901E-1,1.862999946E-1
6.928570312E0,8.829999715E-2,3.543999791E-1,3.325999975E-1
6.938496875E0,1.849000007E-1,3.120000064E-1,3.209999800E-1
6.948423437E0,2.700999975E-1,2.921999991E-1,2.635999918E-1
6.958350000E0,2.008999884E-1,3.012000024E-1,6.169999763E-2
6.968276562E0,1.409000009E-1,2.480999976E-1,-3.000000026E-3
6.978203125E0,1.112999991E-1,2.290999889E-1,-9.079999477E-2
6.988129687E0,-2.349999920E-2,2.378999889E-1,-3.059999831E-2
6.998056250E0,-1.202999949E-1,3.023000062E-1,-2.699999837E-3
7.007982812E0,-1.727000028E-1,2.788999975E-1,-3.359999880E-2
7.017909375E0,-1.920000017E-1,2.951999903E-1,7.699999958E-3
7.027835937E0,-7.409999520E-2,2.839999795E-1,-4.999999888E-3
7.037760937E0,4.659999907E-2,2.922999859E-1,9.300000034E-3
7.047685937E0,1.271999925E-1,2.513999939E-1,-1.950000040E-2
7.057612500E0,3.294000030E-1,2.216999978E-1,-2.659999952E-2
7.067539062E0,2.617999911E-1,3.019999862E-1,4.609999806E-2
7.077465625E0,1.565999985E-1,2.662999928E-1,7.769999653E-2
7.087392187E0,2.339999937E-2,3.287000060E-1,9.449999779E-2
7.097318750E0,-7.869999856E-2,3.405999839E-1,1.789999940E-2
7.107245312E0,-1.829999983E-1,3.883000016E-1,7.100000046E-3
7.117171875E0,-2.259999961E-1,4.937999845E-1,4.959999770E-2
7.127096875E0,-3.337000012E-1,5.390999913E-1,3.619999811E-2
7.137023437E0,-2.442999929E-1,5.752999783E-1,1.599999890E-2
7.146950000E0,-3.062999845E-1,4.855999947E-1,-4.309999943E-2
7.156876562E0,-1.691000015E-1,5.146999955E-1,-4.010000080E-2
7.166803125E0,-1.399999950E-2,5.243999958E-1,2.989999950E-2
7.176729687E0,1.595999897E-1,4.535999894E-1,1.349999942E-2
7.186654687E0,2.847000062E-1,3.832999766E-1,5.929999799E-2
7.196582812E0,2.647999823E-1,2.660000026E-1,1.218999997E-1
7.206507812E0,2.721999884E-1,2.405999899E-1,1.865999997E-1
7.216434375E0,1.894999892E-1,1.767999977E-1,1.254999936E-1
7.226360937E0,3.949999809E-2,1.743000001E-1,1.402999908E-1
7.236287500E0,-5.699999630E-3,1.791999936E-1,2.159999870E-2
7.246212500E0,-1.101999953E-1,1.969999969E-1,-1.570999920E-1
7.256139062E0,-1.350999922E-1,1.896999925E-1,-2.189999968E-1
7.266065625E0,-1.776999980E-1,2.111999989E-1,-2.026999891E-1
7.275992187E0,-2.124999911E-1,2.336999923E-1,-4.849999771E-2
7.285918750E0,-1.710999906E-1,2.100999951E-1,4.309999943E-2
7.295845312E0,8.399999700E-3,1.592999995E-1,-6.699999794E-3
7.305771875E0,6.879999489E-2,1.687999964E-1,-1.860000007E-2
7.315696875E0,1.142999977E-1,1.308999956E-1,4.749999940E-2
7.325623437E0,1.250000000E-1,1.620000005E-1,1.275999993E-1
7.335550000E0,1.537999958E-1,1.828999966E-1,9.219999611E-2
7.345476562E0,1.961999983E-1,1.462000012E-1,3.769999743E-2
7.355403125E0,1.680999994E-1,1.599999964E-1,3.240000084E-2
7.365329687E0,9.489999712E-2,1.834999919E-1,7.109999657E-2
7.375256250E0,-2.769999951E-2,1.973999888E-1,1.723999977E-1
7.385181250E0,-1.347000003E-1,3.655000031E-1,6.409999728E-2
7.395107812E0,-1.407999992E-1,2.972999811E-1,6.199999712E-3
7.405034375E0,-1.356000006E-1,4.145999849E-1,-4.699999932E-3
7.414960937E0,-5.040000007E-2,4.232999980E-1,-2.600000007E-3
7.424887500E0,1.179999951E-2,5.357999802E-1,-7.559999824E-2
7.434814062E0,5.299999937E-2,4.526000023E-1,-1.454000026E-1
7.444740625E0,1.092999950E-1,4.808999896E-1,4.889999703E-2
7.454665625E0,1.314999908E-1,5.210999846E-1,1.528999954E-1
7.464592187E0,1.701999903E-1,4.951999784E-1,2.599000037E-1
7.474518750E0,1.393999904E-1,4.245999753E-1,2.741000056E-1
7.484445312E0,1.587999910E-1,4.302999973E-1,3.601999879E-1
7.494371875E0,8.069999516E-2,4.184999764E-1,4.041999876E-1
7.504298437E0,-8.249999583E-2,4.132999778E-1,2.407999933E-1
7.514225000E0,-9.449999779E-2,3.413999975E-1,-5.999999703E-4
7.524150000E0,-1.037999988E-1,2.282999903E-1,-3.425999880E-1
7.534076562E0,-2.219999880E-1,3.380999863E-1,-4.402000010E-1
7.544003125E0,-3.055000007E-1,2.619000077E-1,-5.864999890E-1
7.553929687E0,-2.360999882E-1,1.987999976E-1,-6.198999882E-1
7.563856250E0,-2.129999995E-1,1.643999964E-1,-5.062000155E-1
7.573782812E0,-1.092000008E-1,1.701999903E-1,-1.467999965E-1
7.583709375E0,-1.162999943E-1,1.805000007E-1,2.437999994E-1
7.593634375E0,-4.900000058E-3,2.016000003E-1,4.192000031E-1
7.603560937E0,1.459999979E-1,2.237999886E-1,3.393999934E-1
7.613487500E0,2.470999956E-1,2.087000012E-1,1.878999919E-1
7.623414062E0,2.369999886E-1,1.557999998E-1,1.515000015E-1
7.633340625E0,2.513000071E-1,1.730999947E-1,2.856000066E-1
7.643265625E0,1.771999896E-1,1.991999894E-1,1.929999888E-1
7.653192187E0,1.909999996E-1,2.048999965E-1,4.849999771E-2
7.663118750E0,1.832999885E-1,2.504000068E-1,-4.699999932E-3
7.673045312E0,1.270000041E-1,2.766000032E-1,5.139999837E-2
7.682971875E0,1.094999984E-1,2.681999803E-1,4.270000011E-2
7.692898437E0,5.799999926E-3,3.396999836E-1,1.376999915E-1
7.702825000E0,-9.319999814E-2,3.330999911E-1,1.295000017E-1
7.712751562E0,-1.406999975E-1,3.366000056E-1,1.446999907E-1
7.722678125E0,-1.832000017E-1,4.132999778E-1,8.200000040E-3
7.732603125E0,-1.582999974E-1,3.416000009E-1,-7.699999958E-2
7.742529687E0,-9.200000204E-3,3.470999897E-1,-7.829999924E-2
7.752456250E0,-2.300000051E-3,4.307999909E-1,-5.049999803E-2
7.762382812E0,2.449999936E-2,3.854999840E-1,-4.820000008E-2
7.772309375E0,-3.439999744E-2,4.591999948E-1,-7.490000129E-2
7.782235937E0,-2.009999938E-2,4.285999835E-1,4.769999906E-2
7.792160937E0,-7.000000030E-2,4.473999739E-1,8.089999855E-2
7.802087500E0,-4.749999940E-2,3.865999877E-1,-6.899999920E-3
7.812014062E0,4.800000042E-2,3.251999915E-1,-9.349999577E-2
7.821940625E0,3.379999846E-2,1.864999980E-1,-1.043999940E-1
7.831867187E0,2.529999986E-2,2.041999996E-1,-6.999999750E-4
7.841792187E0,1.139999926E-2,2.210000008E-1,-9.200000204E-3
7.851718750E0,-1.799999923E-2,2.496999949E-1,4.349999875E-2
7.861645312E0,4.459999874E-2,2.592000067E-1,-2.009999938E-2
7.871571875E0,-4.939999804E-2,3.287000060E-1,5.289999768E-2
7.881498437E0,-1.798999906E-1,2.701999843E-1,9.929999709E-2
7.891425000E0,-7.859999686E-2,3.596999943E-1,7.840000093E-2
7.901351562E0,-2.620000020E-2,3.522000015E-1,1.438999921E-1
7.911278125E0,8.100000024E-2,3.851999938E-1,9.849999845E-2
7.921203125E0,1.106999964E-1,2.999999821E-1,9.149999917E-2
7.931129687E0,1.383000016E-1,2.620999813E-1,1.129999943E-2
7.941056250E0,1.458999962E-1,2.245000005E-1,-1.809999906E-2
7.950982812E0,6.650000066E-2,2.325999886E-1,-9.589999914E-2
7.960909375E0,8.879999816E-2,2.814999819E-1,5.799999926E-3
7.970834375E0,3.000000026E-3,2.613999844E-1,4.979999736E-2
7.980760937E0,-2.219999954E-2,2.538000047E-1,1.622999907E-1
7.990687500E0,-4.549999908E-2,3.261999786E-1,2.224999964E-1
8.000614062E0,-5.869999900E-2,4.282999933E-1,8.460000157E-2
8.010540625E0,-6.109999865E-2,4.587999880E-1,-3.599999938E-3
8.020467187E0,-2.099999934E-1,4.958999753E-1,-1.116999984E-1
8.030393750E0,-1.158000007E-1,4.694999754E-1,-2.111999989E-1
8.040320312E0,-4.499999806E-2,3.628999889E-1,-1.899999976E-1
8.050245312E0,-4.899999872E-2,4.348999858E-1,-1.232999936E-1
8.060171875E0,7.569999993E-2,3.531999886E-1,4.380000010E-2
8.070098437E0,9.869999439E-2,2.827000022E-1,5.389999971E-2
8.080025000E0,1.175999939E-1,2.122999877E-1,-9.910000116E-2
8.089951562E0,2.175000012E-1,2.001999915E-1,-2.220999897E-1
8.099876562E0,1.875000000E-1,1.318999976E-1,-7.079999894E-2
8.109803125E0,2.456999868E-1,1.653999984E-1,2.928999960E-1
8.119731250E0,1.664000005E-1,1.736999899E-1,4.977999926E-1
8.129656250E0,4.250000045E-2,2.063999921E-1,4.677999914E-1
8.139582812E0,-1.000999957E-1,2.014999986E-1,2.304999977E-1
8.149507812E0,-2.274999917E-1,2.229999900E-1,5.689999834E-2
8.159435937E0,-2.996999919E-1,3.315999806E-1,-5.499999970E-2
8.169360937E0,-3.680000007E-1,2.466999888E-1,-9.070000052E-2
8.179289062E0,-1.532000005E-1,3.044999838E-1,-2.177999914E-1
8.189214062E0,2.339999937E-2,2.831999958E-1,-3.240999877E-1
8.199140625E0,9.910000116E-2,2.938999832E-1,-1.965999901E-1
8.209067187E0,2.178999931E-1,1.978999972E-1,-1.678999960E-1
8.218993750E0,1.374000013E-1,1.756999940E-1,1.341999918E-1
8.228918750E0,1.153999940E-1,1.957999915E-1,1.312000006E-1
8.238845312E0,1.206999943E-1,2.290999889E-1,1.181999967E-1
8.248771875E0,1.159999985E-2,2.421000004E-1,5.570000038E-2
8.258698437E0,-9.989999980E-2,2.955999970E-1,9.609999508E-2
8.268625000E0,-6.039999798E-2,2.875999808E-1,1.180999950E-1
8.278551562E0,-1.351999938E-1,4.104999900E-1,2.885999978E-1
8.288476562E0,-5.570000038E-2,4.239999950E-1,1.485999972E-1
8.298403125E0,-4.309999943E-2,4.366999865E-1,4.499999806E-3
8.308329687E0,5.699999630E-3,4.364999831E-1,-8.329999447E-2
8.318257812E0,-6.619999558E-2,3.926999867E-1,-2.328999937E-1
8.328182812E0,-2.939999849E-2,3.152999878E-1,-1.982999891E-1
8.338107812E0,2.319999970E-2,2.395000011E-1,-1.519999951E-1
8.348035937E0,4.479999840E-2,2.639999986E-1,-7.639999688E-2
8.357960937E0,8.410000056E-2,2.029999942E-1,6.879999489E-2
8.367887500E0,1.479000002E-1,1.660999954E-1,1.947999895E-1
8.377814062E0,-1.049999986E-2,2.295999974E-1,2.545000017E-1
8.387740625E0,4.879999906E-2,1.872999966E-1,2.168999910E-1
8.397665625E0,1.359999925E-1,2.038999945E-1,6.669999659E-2
8.407592187E0,9.559999406E-2,1.797000021E-1,8.499999531E-3
8.417518750E0,3.900000080E-2,2.008000016E-1,-1.620000042E-2
8.427445312E0,3.549999744E-2,1.899999976E-1,-7.869999856E-2
8.437371875E0,-1.389999986E-1,2.522999942E-1,-1.757999957E-1
8.447298437E0,-1.790999919E-1,2.951999903E-1,-1.367999911E-1
8.457225000E0,-1.604000032E-1,3.673999906E-1,-1.181999967E-1
8.467150000E0,-1.182999983E-1,4.217999876E-1,-4.999999888E-3
8.477076562E0,-4.169999808E-2,4.007000029E-1,1.187999994E-1
8.487003125E0,8.359999955E-2,3.833999932E-1,1.887999922E-1
8.496929687E0,1.119999960E-1,3.492999971E-1,2.732000053E-1
8.506856250E0,1.846999973E-1,3.454000056E-1,1.427000016E-1
8.516782812E0,1.577999890E-1,3.703999817E-1,4.999999702E-2
8.526709375E0,1.409999933E-2,3.432999849E-1,-5.439999700E-2
8.536634375E0,-3.229999915E-2,3.725999892E-1,-4.919999838E-2
8.546560937E0,-1.028999984E-1,4.478999972E-1,-4.199999850E-3
8.556487500E0,-7.840000093E-2,4.454999864E-1,3.549999744E-2
8.566415625E0,-6.809999794E-2,5.411999822E-1,2.559999935E-2
8.576340625E0,-1.405999959E-1,6.087999940E-1,2.960000001E-2
8.586267187E0,-1.711999923E-1,6.556999683E-1,-4.559999704E-2
8.596193750E0,-7.899999619E-3,6.620000005E-1,-1.255999953E-1
8.606118750E0,3.989999741E-2,6.097999811E-1,-5.959999934E-2
8.616045312E0,9.070000052E-2,6.186000109E-1,8.359999955E-2
8.625971875E0,1.163999960E-1,5.701999664E-1,2.014999986E-1
8.635898437E0,1.916999966E-1,3.792999983E-1,3.376999795E-1
8.645825000E0,2.782999873E-1,3.519999981E-1,4.096999764E-1
8.655751562E0,2.324999869E-1,2.400999963E-1,3.165999949E-1
8.665676562E0,2.481999993E-1,1.771999896E-1,1.476999968E-1
8.675603125E0,2.326999903E-1,1.486999989E-1,-1.212999970E-1
8.685529687E0,2.255999893E-1,5.499999970E-2,-2.184999883E-1
8.695456250E0,4.889999703E-2,4.779999703E-2,-3.227999806E-1
8.705382812E0,-1.567000002E-1,4.569999874E-2,-2.628000081E-1
8.715309375E0,-3.585999906E-1,1.296000034E-1,-8.689999580E-2
8.725235937E0,-4.280000031E-1,2.020999938E-1,-1.951999962E-1
8.735160937E0,-4.189999998E-1,1.752000004E-1,-3.775999844E-1
8.745087500E0,-2.788999975E-1,2.243999988E-1,-3.379999995E-1
8.755014062E0,-1.238999963E-1,2.201000005E-1,-1.850999892E-1
8.764940625E0,-1.169999968E-2,2.085999995E-1,6.489999592E-2
8.774867187E0,8.379999548E-2,2.581000030E-1,3.342999816E-1
8.784793750E0,2.300999910E-1,2.128999978E-1,5.144999623E-1
8.794720312E0,3.682000041E-1,1.726000011E-1,4.479999840E-1
8.804645312E0,3.813000023E-1,1.872999966E-1,3.446999788E-1
8.814571875E0,2.777000070E-1,3.008999825E-1,1.089999974E-1
8.824498437E0,6.199999899E-2,1.832000017E-1,-9.489999712E-2
8.834425000E0,-1.551999897E-1,2.311999947E-1,-1.667999923E-1
8.844351562E0,-1.909999996E-1,2.563999891E-1,-2.969999984E-2
8.854278125E0,-2.926000059E-1,3.817999959E-1,-1.474999934E-1
8.864204687E0,-2.370999902E-1,3.402999938E-1,-2.621999979E-1
8.874129687E0,-2.126999944E-1,2.820999920E-1,-2.895999849E-1
8.884056250E0,-6.359999627E-2,3.263999820E-1,-1.436000019E-1
8.893982812E0,3.289999813E-2,3.337000012E-1,1.518999934E-1
8.903909375E0,1.432999969E-1,3.346999884E-1,2.877999842E-1
8.913835937E0,2.234999985E-1,2.815999985E-1,3.889999986E-1
8.923762500E0,1.634999961E-1,3.016999960E-1,3.141999841E-1
8.933687500E0,1.464999914E-1,3.030999899E-1,1.516999900E-1
8.943614062E0,1.747999936E-1,2.915999889E-1,2.769999951E-2
8.953540625E0,7.050000131E-2,3.263999820E-1,1.099999994E-3
8.963467187E0,2.609999850E-2,3.058999777E-1,-5.859999731E-2
8.973393750E0,-7.419999689E-2,2.915999889E-1,-1.061999947E-1
8.983320312E0,-1.128999963E-1,2.338999957E-1,-2.777000070E-1
8.993245312E0,-1.011999995E-1,2.349999994E-1,-2.343999892E-1
9.003171875E0,-1.620000005E-1,3.057999909E-1,-1.076999977E-1
9.013098437E0,-2.170999944E-1,3.702999949E-1,1.156999990E-1
9.023025000E0,-1.838999987E-1,3.980999887E-1,1.658999920E-1
9.032951562E0,-8.980000019E-2,3.601000011E-1,6.250000000E-2
9.042878125E0,-5.669999868E-2,3.233999908E-1,5.159999803E-2
9.052804687E0,6.009999663E-2,3.436000049E-1,-9.269999713E-2
9.062729687E0,1.119999960E-2,3.138999939E-1,2.979999967E-2
9.072656250E0,6.509999931E-2,2.829999924E-1,1.999999862E-3
9.082582812E0,1.410999894E-1,2.034000009E-1,-3.959999979E-2
9.092509375E0,1.486999989E-1,2.897000015E-1,-7.059999555E-2
9.102435937E0,9.860000014E-2,2.009999901E-1,-7.639999688E-2
9.112362500E0,1.039000005E-1,2.205999941E-1,5.559999868E-2
9.122289062E0,-7.299999706E-3,1.925999969E-1,1.393999904E-1
9.132214062E0,-8.700000122E-3,2.739000022E-1,2.100999951E-1
9.142140625E0,-3.869999945E-2,1.957999915E-1,-7.319999486E-2
9.152067187E0,4.789999872E-2,2.264999896E-1,-6.069999933E-2
9.161993750E0,-1.310000010E-2,2.675999999E-1,1.190999970E-1
9.171920312E0,-1.052000001E-1,3.770999908E-1,1.753999889E-1
9.181846875E0,-1.019999981E-1,3.680999875E-1,1.967999935E-1
9.191773437E0,-1.162000000E-1,4.505999982E-1,9.669999778E-2
9.201698437E0,1.032999977E-1,4.538999796E-1,-5.699999630E-3
9.211625000E0,1.806000024E-1,3.039999902E-1,-1.933999956E-1
9.221551562E0,1.764999926E-1,2.615999877E-1,-1.404999942E-1
9.231478125E0,4.609999806E-2,2.417999953E-1,1.178999990E-1
9.241404687E0,-9.259999543E-2,3.112999797E-1,1.632999927E-1
9.251331250E0,-5.169999972E-2,4.070999920E-1,-4.829999804E-2
9.261256250E0,-9.409999847E-2,2.879999876E-1,-1.369999945E-1
9.271182812E0,-4.019999877E-2,3.662000000E-1,-4.710000008E-2
9.281109375E0,2.099999925E-3,2.653000057E-1,-8.899999782E-3
9.291035937E0,1.189999934E-2,3.118999898E-1,7.000000030E-2
9.300962500E0,5.059999973E-2,1.771000028E-1,1.863999963E-1
9.310889062E0,4.329999909E-2,2.888999879E-1,1.215000004E-1
9.320815625E0,9.079999477E-2,2.116999924E-1,-2.719999850E-2
9.330740625E0,-6.799999624E-3,2.919999957E-1,1.879999973E-2
9.340667187E0,-2.249999903E-2,2.649999857E-1,6.599999964E-2
9.350593750E0,-1.229999959E-1,2.721000016E-1,-5.130000040E-2
9.360520312E0,-1.259000003E-1,3.176999986E-1,-7.970000058E-2
9.370446875E0,-6.639999896E-2,3.051999807E-1,-1.441999972E-1
9.380373437E0,-2.300000051E-3,3.331999779E-1,1.249999925E-2
9.390298437E0,5.999999866E-2,3.120999932E-1,9.479999542E-2
9.400225000E0,1.908999979E-1,2.644000053E-1,1.366000026E-1
9.410151562E0,1.533000022E-1,2.476999909E-1,1.212999970E-1
9.420078125E0,8.190000057E-2,2.022999972E-1,1.150000002E-2
9.430004687E0,9.319999814E-2,3.015999794E-1,-6.539999694E-2
9.439931250E0,2.109999955E-2,2.211999893E-1,-1.955999881E-1
9.449857812E0,-4.979999736E-2,2.563000023E-1,-1.524000019E-1
9.459782812E0,-6.969999522E-2,2.831999958E-1,4.889999703E-2
9.469709375E0,-1.010999978E-1,3.307999969E-1,1.107999980E-1
9.479635937E0,-1.714999974E-1,3.508999944E-1,2.339999974E-1
9.489560937E0,-7.859999686E-2,3.348000050E-1,1.828999966E-1
9.499489062E0,6.999999750E-3,3.287000060E-1,4.490000010E-2
9.509414062E0,-2.129999921E-2,3.701999784E-1,4.930000007E-2
9.519340625E0,-3.409999982E-2,2.908999920E-1,-1.360999942E-1
9.529267187E0,-2.499999944E-3,2.766999900E-1,-1.905999929E-1
9.539193750E0,4.470000044E-2,2.034000009E-1,-1.555999964E-1
9.549120312E0,-8.169999719E-2,2.283999920E-1,-1.746999919E-1
9.559046875E0,-3.109999932E-2,1.762000024E-1,-9.599999525E-3
9.568973437E0,-2.719999850E-2,2.046999931E-1,5.989999697E-2
9.578898437E0,-6.300000101E-2,2.545999885E-1,1.367999911E-1
9.588826562E0,-6.009999663E-2,2.463999987E-1,1.163999960E-1
9.598753125E0,2.219999954E-2,2.705000043E-1,2.249999940E-1
9.608678125E0,1.030999944E-1,1.955999881E-1,1.247999966E-1
9.618604687E0,2.357999980E-1,1.984999925E-1,4.939999804E-2
9.628531250E0,2.493999898E-1,1.422999948E-1,2.889999934E-2
9.638457812E0,1.571999937E-1,2.245999873E-1,3.329999745E-2
9.648382812E0,1.375000030E-1,2.753999829E-1,2.929999866E-2
9.658310937E0,7.669999450E-2,2.483000010E-1,2.019999921E-2
9.668235937E0,5.959999934E-2,4.069999754E-1,3.319999948E-2
9.678162500E0,-3.579999879E-2,4.862999916E-1,7.000000030E-2
9.688089062E0,-1.761000007E-1,5.335000157E-1,1.730000041E-2
9.698015625E0,-2.220999897E-1,6.295999885E-1,6.179999933E-2
9.707942187E0,-2.127999961E-1,6.861000061E-1,2.499999851E-2
9.717867187E0,-1.627999991E-1,7.055000067E-1,1.167999953E-1
9.727795312E0,-1.709000021E-1,6.668999791E-1,1.322999895E-1
9.737720312E0,-1.207999960E-1,6.304000020E-1,1.304000020E-1
9.747646875E0,-7.310000062E-2,6.487999558E-1,-9.250000119E-2
9.757573437E0,3.989999741E-2,5.856999755E-1,-2.786999941E-1
9.767500000E0,9.359999746E-2,5.870999694E-1,-3.985999823E-1
9.777426562E0,6.019999832E-2,5.016999841E-1,-2.434999943E-1
9.787353125E0,1.200999990E-1,4.962999821E-1,-6.329999864E-2
9.797279687E0,9.569999576E-2,5.042999983E-1,1.153999940E-1
9.807204687E0,6.819999963E-2,4.653999805E-1,1.840000004E-1
9.817131250E0,4.199999943E-2,4.870999753E-1,1.433999985E-1
9.827056250E0,5.370000005E-2,5.105999708E-1,2.322999984E-1
9.836982812E0,7.679999620E-2,5.357999802E-1,2.754999995E-1
9.846909375E0,6.999999750E-4,5.116999745E-1,2.273999900E-1
9.856835937E0,2.740000002E-2,6.462000012E-1,2.766000032E-1
9.866762500E0,3.089999966E-2,6.832999587E-1,1.832999885E-1
9.876689062E0,7.169999927E-2,6.493999958E-1,1.068999991E-1
9.886614062E0,1.585000008E-1,6.607999802E-1,-2.199999988E-3
9.896540625E0,1.551999897E-1,7.416999936E-1,4.380000010E-2
9.906467187E0,3.019999899E-2,7.526999712E-1,1.361999959E-1
9.916393750E0,-9.640000015E-2,8.486999869E-1,1.169999968E-2
9.926320312E0,-1.639000028E-1,9.624999762E-1,-2.290000021E-2
9.936246875E0,-2.639999986E-1,9.796999693E-1,3.289999813E-2
9.946173437E0,-2.739999890E-1,9.944999814E-1,-6.279999763E-2
9.956098437E0,-1.594000012E-1,9.595999718E-1,-5.249999836E-2
9.966025000E0,2.999999851E-4,8.305999637E-1,5.079999939E-2
9.975951562E0,1.867000014E-1,9.186999798E-1,1.030000001E-1
9.985878125E0,2.409999967E-1,8.008999825E-1,1.774999946E-1
9.995804687E0,2.595999837E-1,7.146999836E-1,1.307999939E-1
1.000573125E1,2.347999960E-1,5.722000003E-1,1.070999950E-1
1.001565781E1,1.731999964E-1,6.534000039E-1,-6.899999920E-3
1.002558281E1,1.689999998E-1,5.572000146E-1,-4.669999704E-2
1.003550938E1,1.063999981E-1,5.662999749E-1,-8.460000157E-2
1.004543594E1,-5.249999836E-2,6.326999664E-1,-3.739999980E-2
1.005536250E1,-1.977999955E-1,6.389999986E-1,7.719999552E-2
1.006528906E1,-2.283999920E-1,8.121999502E-1,6.079999730E-2
1.007521406E1,-9.879999608E-2,7.321999669E-1,1.127000004E-1
1.008514219E1,-1.240999997E-1,7.628999949E-1,1.953999996E-1
1.009506719E1,3.899999894E-3,7.362999916E-1,1.595000029E-1
1.010499375E1,-2.109999955E-2,8.156999946E-1,7.530000061E-2
1.011492031E1,-7.499999832E-3,9.050999880E-1,2.109999955E-2
1.012484688E1,-8.799999952E-3,8.677999973E-1,1.137999967E-1
1.013477344E1,-2.029999904E-2,8.883999586E-1,1.519999951E-1
1.014470000E1,2.439999953E-2,8.790999651E-1,1.353999972E-1
1.015462500E1,6.089999899E-2,8.507999778E-1,7.429999858E-2
1.016455156E1,4.999999702E-2,8.901000023E-1,-3.370000049E-2
1.017447812E1,-4.399999976E-3,8.004999757E-1,2.600000007E-3
1.018440469E1,4.199999850E-3,8.364999890E-1,-3.529999778E-2
1.019433125E1,3.229999915E-2,7.433999777E-1,-1.096999943E-1
1.020425781E1,3.019999899E-2,7.494999766E-1,-4.699999839E-2
1.021418281E1,8.389999717E-2,6.803999543E-1,8.879999816E-2
1.022410938E1,1.557999998E-1,6.909999847E-1,1.659999937E-1
1.023403594E1,1.612999886E-1,7.136999965E-1,2.060000002E-1
1.024396250E1,6.759999692E-2,6.906999946E-1,2.483999878E-1
1.025388906E1,8.999999613E-3,7.364999652E-1,1.594000012E-1
1.026381563E1,-3.879999742E-2,7.767999768E-1,-3.639999777E-2
1.027374219E1,-4.939999804E-2,8.236999512E-1,-8.699999750E-2
1.028366719E1,-2.034000009E-1,8.701999784E-1,3.999999911E-2
1.029359375E1,-2.468999922E-1,8.852999806E-1,3.959999979E-2
1.030352031E1,-2.009999901E-1,8.996999860E-1,-2.960000001E-2
1.031344688E1,-1.939999871E-2,9.376999736E-1,2.630000003E-2
1.032337344E1,1.250000000E-1,1.007099986E0,9.479999542E-2
1.033330000E1,1.747999936E-1,9.092999697E-1,1.685999930E-1
1.034322656E1,2.911999822E-1,8.923999667E-1,2.445999980E-1
1.035315156E1,2.425999939E-1,8.978999853E-1,1.732999980E-1
1.036307813E1,2.383999974E-1,8.658999801E-1,1.758999974E-1
1.037300469E1,1.247999966E-1,8.453999758E-1,2.524999976E-1
1.038293125E1,4.120000079E-2,8.619999886E-1,1.657999903E-1
1.039285781E1,4.839999974E-2,8.339999914E-1,3.319999948E-2
1.040278438E1,-2.759999968E-2,7.572000027E-1,5.509999767E-2
1.041270938E1,-4.690000042E-2,7.742999792E-1,-3.070000000E-2
1.042263594E1,-1.119999960E-1,7.784999609E-1,8.999999613E-3
1.043256250E1,-1.784999967E-1,7.802999616E-1,-9.420000017E-2
1.044248906E1,-1.510999948E-1,8.705999851E-1,-1.560000032E-1
1.045241562E1,-2.171999961E-1,7.738999724E-1,-1.392000020E-1
1.046234219E1,-1.592999995E-1,8.570999503E-1,-3.089999966E-2
1.047226875E1,-2.829999849E-2,8.526999950E-1,3.999999724E-3
1.048219531E1,2.439999953E-2,9.014999866E-1,1.661999971E-1
1.049212031E1,7.079999894E-2,9.127999544E-1,1.631999910E-1
1.050204688E1,4.120000079E-2,8.567999601E-1,1.683999896E-1
1.051197344E1,1.039999947E-1,8.603999615E-1,1.966999918E-1
1.052190000E1,4.949999973E-2,9.035999775E-1,1.259000003E-1
1.053182656E1,5.699999630E-3,9.251999855E-1,1.027999967E-1
1.054175156E1,1.026999950E-1,9.465000033E-1,7.549999654E-2
1.055167969E1,3.039999865E-2,8.992999792E-1,1.151999980E-1
1.056160469E1,5.889999866E-2,8.713999987E-1,1.579999924E-1
1.057153125E1,6.659999490E-2,8.229999542E-1,5.680000037E-2
1.058145781E1,-4.069999978E-2,8.229999542E-1,2.919999883E-2
1.059138438E1,-2.399999881E-3,9.276999831E-1,-1.215999946E-1
1.060130938E1,-4.239999875E-2,9.046999812E-1,-4.279999807E-2
1.061123594E1,-2.609999850E-2,9.101999998E-1,0.000000000E0
1.062116250E1,-5.249999836E-2,8.786000013E-1,7.490000129E-2
1.063108906E1,-1.399999950E-2,8.277999759E-1,7.880000025E-2
1.064101563E1,5.619999766E-2,8.191999793E-1,9.079999477E-2
1.065094219E1,1.689999923E-2,8.697999716E-1,1.375000030E-1
1.066086875E1,8.889999986E-2,8.527999520E-1,1.534999907E-1
1.067079531E1,2.969999984E-2,8.251999617E-1,1.132999957E-1
1.068072188E1,-2.459999919E-2,8.744999766E-1,2.499999944E-3
1.069064688E1,9.459999949E-2,8.339999914E-1,-7.559999824E-2
1.070057344E1,1.490999907E-1,8.015999794E-1,-1.242999956E-1
1.071049844E1,1.700000018E-1,8.592000008E-1,7.129999995E-2
1.072042656E1,1.013999954E-1,9.405999780E-1,3.382999897E-1
1.073035312E1,2.960000001E-2,9.692999721E-1,5.399000049E-1
1.074027969E1,-5.089999735E-2,1.056200027E0,3.258000016E-1
1.075020469E1,-9.129999578E-2,1.081499934E0,1.239999942E-2
1.076013125E1,-1.572999954E-1,1.118799925E0,-2.187999934E-1
1.077005625E1,-1.341999918E-1,1.120499969E0,-2.439999878E-1
1.077998438E1,-6.929999590E-2,1.150300026E0,3.999999724E-3
1.078991094E1,4.360000044E-2,1.077399969E0,2.025000006E-1
1.079983594E1,7.189999521E-2,9.985999465E-1,2.167999893E-1
1.080976250E1,1.138999984E-1,9.430999756E-1,1.858000010E-1
1.081968906E1,1.037999988E-1,8.871999979E-1,-2.499999944E-3
1.082961562E1,1.215999946E-1,8.441999555E-1,-2.978000045E-1
1.083954219E1,-1.500000013E-3,8.281999826E-1,-2.358999997E-1
1.084946719E1,-6.109999865E-2,8.043999672E-1,-1.310000010E-2
1.085939375E1,-1.606999934E-1,8.707999587E-1,2.484999895E-1
1.086932031E1,-7.729999721E-2,9.010999799E-1,3.510999978E-1
1.087924688E1,3.370000049E-2,8.865999579E-1,2.377999872E-1
1.088917344E1,1.026000008E-1,9.309999943E-1,7.739999890E-2
1.089910000E1,1.322000027E-1,9.657999873E-1,1.312000006E-1
1.090902656E1,1.034999937E-1,9.168999791E-1,-1.979999989E-2
1.091895156E1,8.039999753E-2,1.012499928E0,-3.799999878E-2
1.092887812E1,4.449999705E-2,1.060999990E0,9.439999610E-2
1.093880469E1,1.469999924E-2,1.041599989E0,8.429999650E-2
1.094873125E1,1.339999959E-2,1.071399927E0,2.177999914E-1
1.095865781E1,1.527999938E-1,1.115999937E0,3.159999847E-1
1.096858438E1,8.889999986E-2,1.183099985E0,3.351999819E-1
1.097851094E1,-7.999999449E-3,1.230999947E0,3.728999794E-1
1.098843594E1,2.989999950E-2,1.258700013E0,2.101999968E-1
1.099836250E1,-1.182999983E-1,1.271299958E0,6.289999932E-2
1.100828906E1,-9.489999712E-2,1.306699991E0,-5.229999870E-2
1.101821562E1,-1.965999901E-1,1.285699964E0,-2.635000050E-1
1.102814219E1,-2.119999975E-1,1.241999984E0,-2.949999869E-1
1.103806875E1,-2.592999935E-1,1.211099982E0,-2.219999880E-1
1.104799531E1,-8.240000159E-2,1.212800026E0,-1.571999937E-1
1.105792031E1,2.809999883E-2,1.218500018E0,5.680000037E-2
1.106784688E1,7.109999657E-2,1.150599957E0,3.067999780E-1
1.107777344E1,1.556999981E-1,1.115399957E0,4.217000008E-1
1.108770000E1,1.428999901E-1,1.062099934E0,3.355999887E-1
1.109762656E1,1.563999951E-1,1.119599938E0,2.599000037E-1
1.110755312E1,3.920000046E-2,1.086699963E0,7.819999754E-2
1.111747812E1,-4.089999944E-2,1.037899971E0,-6.920000166E-2
1.112740469E1,-4.899999872E-2,1.100700021E0,-1.859000027E-1
1.113733125E1,-1.331000030E-1,1.134099960E0,-1.129999980E-1
1.114725781E1,-1.418000013E-1,1.206399918E0,-6.499999762E-2
1.115718438E1,-5.579999834E-2,1.243600011E0,1.564999968E-1
1.116711094E1,6.679999828E-2,1.244699955E0,2.949000001E-1
1.117703594E1,1.668999940E-1,1.221799970E0,4.521999955E-1
1.118696250E1,1.930999905E-1,1.261699915E0,5.248000026E-1
1.119688906E1,2.096000016E-1,1.274099946E0,3.276000023E-1
1.120681562E1,4.800000042E-2,1.253399968E0,1.419999897E-1
1.121674219E1,-1.300999969E-1,1.286199927E0,3.299999982E-3
1.122666875E1,-1.350999922E-1,1.332499981E0,-1.379999984E-2
1.123659375E1,-1.372999996E-1,1.370899916E0,-1.416999996E-1
1.124652031E1,-4.089999944E-2,1.339800000E0,-2.261999995E-1
1.125644688E1,-2.709999867E-2,1.241899967E0,-2.214999944E-1
1.126637344E1,1.199999941E-3,1.126999974E0,-1.273999959E-1
1.127630000E1,5.309999734E-2,1.133299947E0,1.472999901E-1
1.128622656E1,8.579999954E-2,1.134299994E0,3.355000019E-1
1.129615312E1,2.193000019E-1,1.021600008E0,3.764999807E-1
1.130607812E1,3.217000067E-1,1.010999918E0,3.434000015E-1
1.131600469E1,2.312999964E-1,9.921999574E-1,1.985999942E-1
1.132593125E1,7.899999619E-2,1.048799992E0,1.158000007E-1
1.133585781E1,-6.219999865E-2,1.179799914E0,9.160000086E-2
1.134578438E1,-1.576000005E-1,1.226799965E0,2.659999952E-2
1.135571094E1,-1.563999951E-1,1.297299981E0,-1.057999954E-1
1.136563750E1,-1.919000000E-1,1.268700004E0,-1.704999954E-1
1.137556250E1,-1.648000032E-1,1.310400009E0,-1.083000004E-1
1.138548906E1,-1.955000013E-1,1.363799930E0,-3.700000001E-3
1.139541562E1,-1.296999902E-1,1.331799984E0,1.209999993E-1
1.140534219E1,4.479999840E-2,1.361799955E0,2.131999880E-1
1.141526875E1,1.143999994E-1,1.317799926E0,3.994999826E-1
1.142519531E1,2.408999950E-1,1.274399996E0,3.165999949E-1
1.143512188E1,2.186999917E-1,1.299199939E0,1.735999882E-1
1.144504688E1,2.343999892E-1,1.295199990E0,1.553999931E-1
1.145497344E1,1.499999911E-1,1.280399919E0,9.820000082E-2
1.146490000E1,8.599999361E-3,1.320699930E0,1.568000019E-1
1.147482656E1,-2.129999995E-1,1.380299926E0,2.471999973E-1
1.148475313E1,-2.910999954E-1,1.299499989E0,3.999999724E-3
1.149467969E1,-1.526999921E-1,1.323499918E0,-1.142999977E-1
1.150460625E1,-1.556999981E-1,1.299499989E0,-8.540000021E-2
1.151453125E1,-1.504999995E-1,1.265999913E0,-2.749999985E-2
1.152445781E1,-1.659999937E-1,1.163699985E0,7.169999927E-2
1.153438438E1,-1.287000030E-1,1.083199978E0,3.249999881E-2
1.154431094E1,-7.799999788E-3,1.033499956E0,-2.290000021E-2
1.155423750E1,1.365000010E-1,9.523999691E-1,-8.439999819E-2
1.156416250E1,1.398999989E-1,9.195999503E-1,-7.959999889E-2
1.157408906E1,8.919999748E-2,8.966999650E-1,-4.799999762E-3
1.158401563E1,-2.199999988E-3,9.154999852E-1,1.479000002E-1
1.159394219E1,-6.899999827E-2,9.178999662E-1,3.240999877E-1
1.160386875E1,-3.409999982E-2,8.923999667E-1,2.492999882E-1
1.161379531E1,5.049999803E-2,8.458999991E-1,3.260000050E-2
1.162372188E1,1.591999978E-1,8.077999949E-1,-7.469999790E-2
1.163364688E1,2.175000012E-1,7.480999827E-1,-8.399999887E-2
1.164357344E1,1.246999949E-1,7.565000057E-1,9.600000083E-2
1.165350000E1,8.219999820E-2,6.660999656E-1,2.089999989E-2
1.166342656E1,3.999999724E-3,6.085000038E-1,1.188999936E-1
1.167335312E1,-4.899999872E-2,6.694999933E-1,1.254999936E-1
1.168327969E1,-1.262999922E-1,7.791999578E-1,9.919999540E-2
1.169320625E1,-2.511000037E-1,6.893000007E-1,-4.699999932E-3
1.170313125E1,-1.838999987E-1,6.577999592E-1,-1.718000025E-1
1.171305781E1,-1.222999990E-1,6.935999990E-1,-1.772999913E-1
1.172298438E1,7.549999654E-2,6.613000035E-1,-5.999999866E-2
1.173291094E1,2.603999972E-1,5.909999609E-1,1.421999931E-1
1.174283750E1,2.800999880E-1,5.733999610E-1,3.698000014E-1
1.175276406E1,2.933000028E-1,6.283000112E-1,3.188000023E-1
1.176269063E1,1.767999977E-1,5.654999614E-1,7.199999876E-3
1.177261562E1,-7.519999892E-2,6.455999613E-1,-1.964999884E-1
1.178254219E1,-2.319999933E-1,6.328999996E-1,-1.943999976E-1
1.179246875E1,-2.378999889E-1,5.871999860E-1,-1.035999954E-1
1.180239531E1,-1.831000000E-1,5.522999763E-1,3.179999813E-2
1.181232188E1,-4.099999741E-2,4.639999866E-1,2.116999924E-1
1.182224844E1,1.067999974E-1,4.069999754E-1,1.190999970E-1
1.183217344E1,9.989999980E-2,3.614999950E-1,1.664000005E-1
1.184210000E1,1.093999967E-1,2.863000035E-1,6.700000167E-2
1.185202656E1,1.014999971E-1,2.687999904E-1,-2.789999917E-2
1.186195313E1,5.529999733E-2,1.976999938E-1,-1.685999930E-1
1.187187969E1,-4.509999976E-2,2.151999921E-1,-1.251000017E-1
1.188180625E1,-9.290000051E-2,2.131000012E-1,1.719999872E-2
1.189173125E1,1.330000013E-1,2.145999968E-1,2.326999903E-1
1.190165781E1,1.845999956E-1,1.896999925E-1,3.097999990E-1
1.191158438E1,2.109999955E-1,1.282999963E-1,1.737999916E-1
1.192151094E1,2.109999955E-1,2.066999972E-1,1.131999940E-1
1.193143750E1,1.630000025E-2,1.762000024E-1,2.789999917E-2
1.194136250E1,-1.056999937E-1,1.846999973E-1,-1.421999931E-1
1.195129062E1,-9.259999543E-2,1.973000020E-1,-2.326999903E-1
1.196121563E1,-4.800000042E-2,1.599999964E-1,-2.599999905E-1
1.197114219E1,8.700000122E-3,4.429999739E-2,-1.737999916E-1
1.198106875E1,1.336999983E-1,6.899999827E-2,-6.430000067E-2
1.199099531E1,1.915999949E-1,-3.849999979E-2,2.730000019E-2
1.200092031E1,2.013999969E-1,-9.369999915E-2,7.580000162E-2
1.201084688E1,3.219999745E-2,-9.950000048E-2,5.979999900E-2
1.202077500E1,-8.549999446E-2,-1.435000002E-1,1.656000018E-1
1.203070000E1,-1.345999986E-1,-1.112999991E-1,1.001999974E-1
1.204062656E1,-1.638000011E-1,-2.131000012E-1,-1.884000003E-1
1.205055312E1,-1.582999974E-1,-2.310999930E-1,-3.423999846E-1
1.206047813E1,-2.146999985E-1,-2.278999984E-1,-2.132999897E-1
1.207040469E1,-2.031999975E-1,-1.564999968E-1,-1.331000030E-1
1.208033125E1,-2.500999868E-1,-1.620000005E-1,-5.079999939E-2
1.209025781E1,-1.557999998E-1,-1.345999986E-1,-2.589999884E-2
1.210018438E1,7.899999619E-3,-1.441999972E-1,1.939999871E-2
1.211011094E1,8.069999516E-2,-9.459999949E-2,1.061000004E-1
1.212003750E1,1.880999953E-1,-1.221999973E-1,2.290999889E-1
1.212996250E1,2.754999995E-1,7.999999798E-4,3.899999857E-1
1.213988906E1,2.474999875E-1,-3.859999776E-2,3.331999779E-1
1.214981562E1,3.425999880E-1,7.449999452E-2,3.203999996E-1
1.215974219E1,1.852999926E-1,2.317999899E-1,3.428999782E-1
1.216966875E1,2.620000020E-2,3.182999790E-1,2.342000008E-1
1.217959531E1,-1.572999954E-1,4.684999883E-1,-5.989999697E-2
1.218952031E1,-2.868999839E-1,5.432999730E-1,-1.330000013E-1
1.219944688E1,-3.531000018E-1,6.349999905E-1,-3.623999953E-1
1.220937500E1,-2.318999916E-1,6.268999577E-1,-3.300999999E-1
1.221930000E1,-4.800000042E-2,5.058000088E-1,-1.626999974E-1
1.222922656E1,1.703999937E-1,4.799000025E-1,-4.349999875E-2
1.223915313E1,3.479999900E-1,4.581999779E-1,1.335999966E-1
1.224907969E1,3.057999909E-1,3.773999810E-1,4.141999781E-1
1.225900625E1,3.511999846E-1,3.923999965E-1,4.360999763E-1
1.226893125E1,2.088999897E-1,3.215999901E-1,2.807999849E-1
1.227885781E1,1.134999990E-1,3.446999788E-1,-2.199999988E-2
1.228878438E1,-5.700000003E-2,2.812999785E-1,-1.561999917E-1
1.229871094E1,-1.859999895E-1,2.458999902E-1,-1.776999980E-1
1.230863750E1,-3.194999993E-1,2.514999807E-1,-1.159999967E-1
1.231856250E1,-4.230999947E-1,2.515999973E-1,-3.224999905E-1
1.232848906E1,-4.206999838E-1,2.276999950E-1,-2.742999792E-1
1.233841563E1,-3.542999923E-1,1.897999942E-1,-2.067999989E-1
1.234834375E1,-3.012000024E-1,1.956999898E-1,-1.679999977E-1
1.235827031E1,-1.665000021E-1,1.562999934E-1,6.300000008E-3
1.236819531E1,2.879999951E-2,1.577999890E-1,3.900000080E-2
1.237812188E1,2.867999971E-1,1.577999890E-1,1.882999986E-1
1.238804844E1,3.928999901E-1,9.879999608E-2,2.220999897E-1
1.239797344E1,4.091999829E-1,1.211999953E-1,2.543999851E-1
1.240790000E1,3.668999970E-1,1.583999991E-1,2.937999964E-1
1.241782656E1,2.125999928E-1,1.401999891E-1,1.484999955E-1
1.242775312E1,1.222999990E-1,1.777999997E-1,1.649999991E-2
1.243767969E1,-2.529999986E-2,1.710999906E-1,-1.118000001E-1
1.244760625E1,-7.959999889E-2,2.176999897E-1,-1.664000005E-1
1.245753125E1,-1.587999910E-1,2.294999957E-1,-1.498999894E-1
1.246745781E1,-2.026000023E-1,2.611999810E-1,-8.139999956E-2
1.247738438E1,-4.619999975E-2,2.967999876E-1,7.429999858E-2
1.248731094E1,1.620000042E-2,2.479999959E-1,1.818999946E-1
1.249723750E1,1.027999967E-1,2.897000015E-1,1.607999951E-1
1.250716406E1,1.573999971E-1,3.335999846E-1,1.169999987E-1
1.251709063E1,1.246999949E-1,3.389999866E-1,3.170000017E-2
1.252701562E1,9.679999948E-2,2.942999899E-1,4.839999974E-2
1.253694219E1,8.729999512E-2,3.368999958E-1,8.169999719E-2
1.254686875E1,3.019999899E-2,3.779999912E-1,4.589999840E-2
1.255679531E1,-6.039999798E-2,3.280999959E-1,-7.499999832E-3
1.256672188E1,-1.576000005E-1,3.946000040E-1,-3.249999881E-2
1.257664844E1,-1.296000034E-1,3.504000008E-1,-1.215999946E-1
1.258657500E1,-1.851999909E-1,4.029999971E-1,-6.570000201E-2
1.259650000E1,-9.359999746E-2,4.081999958E-1,-1.779999956E-2
1.260642656E1,1.489999983E-2,4.056999981E-1,2.549999952E-2
1.261635313E1,4.600000102E-3,4.632000029E-1,5.139999837E-2
1.262627969E1,1.706999987E-1,4.641999900E-1,5.159999803E-2
1.263620625E1,1.636999995E-1,4.573999941E-1,1.224999949E-1
1.264613281E1,1.754999906E-1,5.310999751E-1,1.854999959E-1
1.265605938E1,5.920000002E-2,6.159999967E-1,2.649999857E-1
1.266598438E1,-4.759999737E-2,6.333000064E-1,2.467999905E-1
1.267591094E1,-1.367999911E-1,5.497999787E-1,1.146999970E-1
1.268583750E1,-1.621999890E-1,6.883999705E-1,2.459999919E-2
1.269576406E1,-2.069000006E-1,6.559999585E-1,-7.589999586E-2
1.270569062E1,-1.933999956E-1,5.820999742E-1,-7.580000162E-2
1.271561719E1,-6.799999624E-2,7.633000016E-1,-1.439999975E-2
1.272554219E1,0.000000000E0,6.215999722E-1,-3.229999915E-2
1.273546875E1,9.559999406E-2,5.207999945E-1,1.179999951E-2
1.274539531E1,2.680999935E-1,4.990999997E-1,-3.739999980E-2
1.275532188E1,2.377999872E-1,4.508999884E-1,8.039999753E-2
1.276524844E1,1.109999940E-1,4.240999818E-1,1.509999931E-1
1.277517500E1,5.609999970E-2,3.685999811E-1,8.949999511E-2
1.278510000E1,-5.539999902E-2,3.120000064E-1,4.569999874E-2
1.279502656E1,-9.089999646E-2,3.100000024E-1,-1.738999933E-1
1.280495312E1,-8.599999361E-3,2.581999898E-1,-8.799999952E-2
1.281487969E1,-1.223999932E-1,3.148999810E-1,9.200000018E-2
1.282480625E1,-1.405999959E-1,2.048999965E-1,6.560000032E-2
1.283473281E1,-1.106999964E-1,2.617999911E-1,4.279999807E-2
1.284465938E1,-4.899999872E-2,1.820999980E-1,-1.691000015E-1
1.285458438E1,4.999999702E-2,1.292999983E-1,-2.545000017E-1
1.286451094E1,1.207999960E-1,1.341999918E-1,-1.544999927E-1
1.287443750E1,1.193999946E-1,1.217999980E-1,6.300000008E-3
1.288436406E1,3.899999894E-3,1.802999973E-1,1.779999882E-1
1.289429062E1,-9.399999864E-3,1.539999992E-1,2.433999926E-1
1.290421719E1,2.049999870E-2,1.799999923E-1,2.518999875E-1
1.291414375E1,1.133999974E-1,1.977999955E-1,1.960999966E-1
1.292406875E1,6.469999999E-2,1.375999898E-1,1.749999970E-1
1.293399531E1,1.370000001E-2,1.034999937E-1,2.539999969E-2
1.294392188E1,-1.238999963E-1,1.070000008E-1,4.449999705E-2
1.295384844E1,-2.150999904E-1,1.358000040E-1,-3.720000014E-2
1.296377500E1,-2.402999997E-1,3.959999979E-2,-3.086999953E-1
1.297370156E1,-1.076999977E-1,9.279999882E-2,-6.200000048E-1
1.298362656E1,-2.999999851E-4,9.089999646E-2,-5.514000058E-1
1.299355469E1,6.799999624E-2,1.713999957E-1,-2.954999804E-1
1.300347969E1,1.622999907E-1,2.470999956E-1,2.159999907E-1
1.301340625E1,2.558999956E-1,2.872000039E-1,5.080000162E-1
1.302333281E1,2.863999903E-1,3.822999895E-1,5.766000152E-1
1.303325938E1,2.223999947E-1,4.070999920E-1,5.442999601E-1
1.304318594E1,2.412000000E-1,5.009999871E-1,5.115999579E-1
1.305311094E1,1.174999997E-1,6.409999728E-1,3.111999929E-1
1.306303750E1,6.140000001E-2,7.128999829E-1,8.249999583E-2
1.307296406E1,8.899999782E-3,7.741999626E-1,-9.869999439E-2
1.308289063E1,-7.679999620E-2,7.902999520E-1,-7.519999892E-2
1.309281719E1,-4.839999974E-2,7.426999807E-1,2.859999985E-2
1.310274375E1,-1.223999932E-1,7.454999685E-1,1.173999980E-1
1.311267031E1,-1.589999944E-1,7.662999630E-1,-4.470000044E-2
1.312259531E1,-1.433999985E-1,7.374999523E-1,-2.233999968E-1
1.313252188E1,-6.369999796E-2,6.313999891E-1,-1.825999916E-1
1.314244844E1,1.709999889E-2,5.975999832E-1,7.289999723E-2
1.315237500E1,6.629999727E-2,4.481000006E-1,2.155999988E-1
1.316230156E1,2.439999953E-2,4.720000029E-1,3.436000049E-1
1.317222812E1,1.375000030E-1,4.134999812E-1,2.557999790E-1
1.318215469E1,2.018999904E-1,3.136000037E-1,-3.139999881E-2
1.319208125E1,1.688999981E-1,2.459999919E-1,-1.885999888E-1
1.320200625E1,1.613999903E-1,2.149000019E-1,-1.858000010E-1
1.321193281E1,6.260000169E-2,1.823999882E-1,-6.260000169E-2
1.322185938E1,-7.699999958E-3,1.955000013E-1,-8.899999410E-2
1.323178594E1,-7.629999518E-2,1.696999967E-1,-1.263999939E-1
1.324171250E1,-1.393000036E-1,8.669999987E-2,-8.039999753E-2
1.325163906E1,-1.393999904E-1,8.280000091E-2,-4.100000020E-3
1.326156563E1,-8.590000123E-2,7.979999483E-2,9.629999846E-2
1.327149062E1,-7.119999826E-2,1.198999956E-1,1.959999949E-1
1.328141719E1,-7.979999483E-2,1.105999947E-1,3.299999982E-3
1.329134375E1,-1.272999942E-1,9.950000048E-2,-1.218999997E-1
1.330127031E1,-5.709999800E-2,7.759999484E-2,-1.398999989E-1
1.331119688E1,6.019999832E-2,3.599999845E-2,-7.039999962E-2
1.332112344E1,1.010999978E-1,1.200000010E-2,-5.289999768E-2
1.333105000E1,4.209999740E-2,6.920000166E-2,5.200000014E-3
1.334097500E1,-5.769999698E-2,9.769999981E-2,-5.359999835E-2
1.335090000E1,-1.323999912E-1,5.659999698E-2,-1.048999950E-1
1.336082813E1,-9.699999541E-2,1.228000000E-1,-6.109999865E-2
1.337075469E1,-5.989999697E-2,7.169999927E-2,-6.069999933E-2
1.338067969E1,1.419999897E-1,6.069999933E-2,2.139999904E-2
1.339060625E1,1.988999993E-1,1.999999862E-3,2.049999870E-2
1.340053281E1,3.053999841E-1,2.559999935E-2,1.560000032E-1
1.341045938E1,2.611999810E-1,1.206000000E-1,2.036999911E-1
1.342038438E1,2.023999989E-1,1.608999968E-1,2.333000004E-1
1.343031094E1,6.969999522E-2,2.104000002E-1,2.131999880E-1
1.344023750E1,-6.879999489E-2,3.387999833E-1,2.205999941E-1
1.345016406E1,-1.932999939E-1,3.912999928E-1,1.066999957E-1
1.346009063E1,-3.050999939E-1,4.373999834E-1,-4.050000012E-2
1.347001719E1,-2.540999949E-1,4.817999899E-1,-1.349999942E-2
1.347994375E1,-2.424999923E-1,4.176999927E-1,-4.419999942E-2
1.348987031E1,-1.032999977E-1,4.795999825E-1,-7.580000162E-2
1.349979531E1,-5.150000006E-2,4.375000000E-1,4.939999804E-2
1.350972344E1,2.789999917E-2,4.061999917E-1,-3.619999811E-2
1.351964844E1,9.089999646E-2,3.628000021E-1,-1.207999960E-1
1.352957500E1,3.879999742E-2,3.592999876E-1,-8.439999819E-2
1.353950156E1,3.139999881E-2,2.498999983E-1,-4.140000045E-2
1.354942812E1,-3.700000048E-2,2.358999997E-1,-8.569999784E-2
1.355935469E1,-4.339999706E-2,1.354999989E-1,-1.939999871E-2
1.356928125E1,8.389999717E-2,1.149999946E-1,-3.249999881E-2
1.357920781E1,1.074999943E-1,8.460000157E-2,-4.189999774E-2
1.358913438E1,2.099999972E-2,9.339999408E-2,7.100000046E-3
1.359905938E1,-1.439999975E-2,9.290000051E-2,-5.729999766E-2
1.360898438E1,6.229999661E-2,9.290000051E-2,2.899999963E-3
1.361891094E1,8.779999614E-2,5.359999835E-2,-7.499999832E-3
1.362883750E1,1.841999888E-1,5.519999936E-2,6.679999828E-2
1.363876563E1,1.831000000E-1,1.376999915E-1,1.933999956E-1
1.364869219E1,1.254999936E-1,1.335999966E-1,1.219999939E-1
1.365861875E1,8.999999845E-4,1.495999992E-1,2.061000019E-1
1.366854375E1,-8.760000020E-2,2.143999934E-1,1.310999990E-1
1.367847031E1,-1.727000028E-1,3.057999909E-1,9.879999608E-2
1.368839688E1,-1.495999992E-1,2.854999900E-1,1.299999934E-2
1.369832344E1,-5.240000039E-2,2.538999915E-1,-1.187999994E-1
1.370825000E1,-1.169999968E-2,2.798999846E-1,-5.099999905E-2
1.371817656E1,-1.809999906E-2,3.278000057E-1,7.220000029E-2
1.372810156E1,-1.850000024E-2,2.760999799E-1,-1.349999942E-2
1.373802813E1,-8.749999851E-2,3.344999850E-1,8.529999852E-2
1.374795469E1,-3.680000082E-2,3.650999963E-1,3.689999878E-2
1.375787969E1,1.105999947E-1,3.152999878E-1,-7.859999686E-2
1.376780625E1,1.252999902E-1,3.624999821E-1,-2.029999904E-2
1.377773281E1,1.781999916E-1,3.554999828E-1,1.211999953E-1
1.378765938E1,6.859999895E-2,3.977999985E-1,1.859999895E-1
1.379758594E1,6.300000101E-2,3.990999758E-1,1.379999984E-2
1.380751094E1,-1.649999991E-2,3.793999851E-1,-1.167999953E-1
1.381743750E1,-2.789999917E-2,4.081999958E-1,-8.909999579E-2
1.382736406E1,-5.769999698E-2,4.948000014E-1,8.689999580E-2
1.383729063E1,-7.220000029E-2,4.535000026E-1,1.437999904E-1
1.384721719E1,-1.410999894E-1,4.816999733E-1,8.049999923E-2
1.385714375E1,-1.273999959E-1,4.712999761E-1,-5.299999937E-2
1.386707031E1,-9.259999543E-2,4.684000015E-1,-1.907999963E-1
1.387701562E1,-8.129999787E-2,4.755999744E-1,-4.299999680E-3
1.388692188E1,1.300000004E-3,4.904999733E-1,-9.349999577E-2
1.389684844E1,3.439999744E-2,4.081999958E-1,-7.789999992E-2
1.390677500E1,6.899999920E-3,4.272999763E-1,9.769999981E-2
1.391670156E1,-2.669999935E-2,3.897999823E-1,1.062999964E-1
1.392662812E1,3.000000026E-3,3.405999839E-1,8.899999410E-2
1.393655469E1,3.460000083E-2,2.734999955E-1,4.429999739E-2
1.394647969E1,5.629999936E-2,2.081999928E-1,8.100000024E-2
1.395640625E1,5.069999769E-2,2.204999924E-1,1.243999973E-1
1.396633438E1,1.064999998E-1,2.009999901E-1,-2.929999866E-2
1.397626094E1,9.519999474E-2,1.618999988E-1,-5.359999835E-2
1.398618750E1,1.881999969E-1,1.330000013E-1,-8.329999447E-2
1.399611250E1,9.070000052E-2,1.436000019E-1,3.920000046E-2
1.400603906E1,8.349999785E-2,1.543999910E-1,1.067999974E-1
1.401596406E1,3.109999932E-2,1.904999912E-1,3.220999837E-1
1.402589062E1,-6.549999863E-2,2.987000048E-1,3.976999819E-1
1.403581719E1,-5.119999871E-2,2.676999867E-1,1.437000036E-1
1.404574375E1,2.300000051E-3,2.714999914E-1,-7.249999791E-2
1.405567031E1,-7.829999924E-2,2.910999954E-1,-1.719999909E-1
1.406559531E1,-1.405999959E-1,2.626999915E-1,-2.541999817E-1
1.407552344E1,-2.133999914E-1,2.590000033E-1,-2.538000047E-1
1.408544844E1,-1.661999971E-1,2.189999968E-1,-2.405999899E-1
1.409537656E1,-9.759999812E-2,1.827999949E-1,-1.596999913E-1
1.410530156E1,3.680000082E-2,1.794999987E-1,1.840000041E-2
1.411522813E1,9.759999812E-2,2.374999970E-1,1.043999940E-1
1.412515469E1,1.436000019E-1,1.791999936E-1,1.020999998E-1
1.413508125E1,1.209999993E-1,1.624999940E-1,1.222999990E-1
1.414500781E1,1.067999974E-1,2.274999917E-1,2.368000001E-1
1.415493281E1,1.730999947E-1,1.853999943E-1,2.231999934E-1
1.416485938E1,2.157999873E-1,1.823999882E-1,1.140000001E-1
1.417478594E1,7.029999793E-2,2.498999983E-1,1.759999990E-1
1.418471250E1,2.159999870E-2,3.542000055E-1,3.559999913E-2
1.419463906E1,-1.108999997E-1,3.346999884E-1,-4.129999876E-2
1.420456562E1,-1.836999953E-1,3.698999882E-1,-6.489999592E-2
1.421449063E1,-1.378999949E-1,4.043999910E-1,-8.779999614E-2
1.422441719E1,-1.533999890E-1,4.639999866E-1,-1.762999892E-1
1.423434375E1,-5.949999765E-2,4.689999819E-1,-1.960000023E-2
1.424427031E1,-3.559999913E-2,4.282999933E-1,1.010999978E-1
1.425419688E1,8.799999952E-3,3.606999815E-1,1.744999886E-1
1.426412344E1,4.199999943E-2,3.425999880E-1,1.335999966E-1
1.427404844E1,-3.460000083E-2,3.831000030E-1,-8.839999884E-2
1.428397500E1,-2.719999850E-2,3.515999913E-1,-1.797000021E-1
1.429390156E1,-7.099999487E-2,3.465999961E-1,-2.189999968E-1
1.430382812E1,-1.371999979E-1,2.629999816E-1,-1.015999988E-1
1.431375469E1,-1.069999952E-2,2.304999977E-1,5.999999866E-2
1.432368125E1,5.009999871E-2,2.214999944E-1,1.921999902E-1
1.433360781E1,1.783999950E-1,1.263999939E-1,2.009999901E-1
1.434353281E1,2.639999986E-1,3.179999813E-2,3.350000083E-2
1.435345938E1,2.494999915E-1,5.099999718E-3,-1.028999984E-1
1.436338594E1,1.713999957E-1,7.669999450E-2,-4.409999773E-2
1.437331250E1,-7.270000130E-2,1.719999872E-2,-8.069999516E-2
1.438323906E1,-7.299999893E-2,7.530000061E-2,6.740000099E-2
1.439316563E1,-1.071999967E-1,2.149999887E-1,2.644000053E-1
1.440309062E1,-1.177999973E-1,2.879000008E-1,2.421999872E-1
1.441301719E1,-6.469999999E-2,3.102999926E-1,1.193999946E-1
1.442294375E1,2.259999886E-2,3.445000052E-1,2.259999886E-2
1.443287031E1,6.650000066E-2,2.979999781E-1,-3.529999778E-2
1.444279688E1,4.349999875E-2,3.554999828E-1,-9.999999776E-3
1.445272344E1,6.599999964E-2,3.055999875E-1,5.419999734E-2
1.446265000E1,6.949999928E-2,3.851999938E-1,8.109999448E-2
1.447257500E1,-6.960000098E-2,4.111999869E-1,-1.270999908E-1
1.448250156E1,-5.389999971E-2,4.296000004E-1,1.999999949E-4
1.449242813E1,2.929999866E-2,5.076000094E-1,3.579999879E-2
1.450235469E1,3.390000015E-2,4.773999751E-1,8.349999785E-2
1.451228125E1,7.739999890E-2,5.048999786E-1,5.689999834E-2
1.452220625E1,1.092999950E-1,5.273999572E-1,3.280000016E-2
1.453213281E1,3.319999948E-2,5.889999866E-1,1.270999908E-1
1.454205938E1,-5.700000003E-2,5.712999701E-1,1.315999925E-1
1.455198594E1,-1.203999966E-1,6.097999811E-1,4.349999875E-2
1.456191250E1,-9.649999440E-2,5.891000032E-1,-2.190000005E-2
1.457183750E1,-8.199999481E-2,5.390999913E-1,-4.100000020E-3
1.458176406E1,-1.409999933E-2,4.666000009E-1,-7.339999825E-2
1.459169062E1,-1.779999956E-2,4.323999882E-1,-7.699999958E-2
1.460161719E1,-2.469999902E-2,4.474999905E-1,-1.177999973E-1
1.461154375E1,-1.379999984E-2,4.341000021E-1,-9.690000117E-2
1.462147031E1,-2.609999850E-2,3.716000021E-1,-5.049999803E-2
1.463139688E1,3.439999744E-2,3.798999786E-1,3.370000049E-2
1.464132344E1,1.480000000E-2,4.201000035E-1,1.834999919E-1
1.465125000E1,8.209999651E-2,2.763999999E-1,2.012999952E-1
1.466117656E1,1.481000036E-1,3.109000027E-1,1.846999973E-1
1.467110156E1,1.184999943E-1,3.281999826E-1,2.052000016E-1
1.468102813E1,7.270000130E-2,3.563999832E-1,1.928000003E-1
1.469095469E1,6.999999750E-4,3.129000068E-1,9.250000119E-2
1.470088125E1,-2.219999954E-2,2.960999906E-1,9.099999443E-3
1.471080781E1,-5.460000038E-2,2.551999986E-1,-1.262999922E-1
1.472073281E1,-9.730000049E-2,2.884999812E-1,-1.805000007E-1
1.473066094E1,-9.489999712E-2,3.398000002E-1,-1.423999965E-1
1.474058594E1,-9.239999950E-2,2.633000016E-1,-1.696999967E-1
1.475051406E1,-2.869999968E-2,2.366999984E-1,-1.535999924E-1
1.476043906E1,-1.144999936E-1,2.245000005E-1,5.519999936E-2
1.477036406E1,-5.449999869E-2,1.967999935E-1,2.316999882E-1
1.478029063E1,6.309999526E-2,2.083999962E-1,1.465999931E-1
1.479021719E1,1.420999914E-1,1.342999935E-1,1.445000023E-1
1.480014531E1,1.504999995E-1,1.597999930E-1,6.069999933E-2
1.481007031E1,1.397999972E-1,1.226999983E-1,-7.400000095E-2
1.481999688E1,9.160000086E-2,1.319999993E-1,-4.230000079E-2
1.482992344E1,3.869999945E-2,1.106999964E-1,-1.349000037E-1
1.483985000E1,-6.909999996E-2,1.550000012E-1,-1.495999992E-1
1.484977500E1,-7.719999552E-2,1.492999941E-1,-1.666999906E-1
1.485970313E1,-3.009999916E-2,1.941999942E-1,-1.314999908E-1
1.486965469E1,3.889999911E-2,2.516999841E-1,1.323999912E-1
1.487955469E1,1.026999950E-1,2.836999893E-1,2.845000029E-1
1.488948125E1,1.481000036E-1,3.696999848E-1,4.077999890E-1
1.489940625E1,7.819999754E-2,3.619999886E-1,3.745999932E-1
1.490933281E1,6.719999760E-2,3.748999834E-1,1.571999937E-1
1.491925938E1,3.830000013E-2,4.420000017E-1,3.629999980E-2
1.492918594E1,3.779999912E-2,3.962000012E-1,-5.509999767E-2
1.493911250E1,-2.899999917E-2,4.593999982E-1,-1.544999927E-1
1.494903906E1,-1.819999963E-1,3.827999830E-1,-7.939999551E-2
1.495896406E1,-2.678000033E-1,4.123999774E-1,-1.571999937E-1
1.496889062E1,-2.184000015E-1,4.820999801E-1,-1.425999999E-1
1.497881719E1,-1.975999922E-1,3.368999958E-1,-1.609999985E-1
1.498874375E1,-2.061000019E-1,3.122999966E-1,-1.715999991E-1
1.499867031E1,-1.325999945E-1,2.884999812E-1,-1.306999922E-1
1.500859688E1,8.509999514E-2,2.184000015E-1,3.889999911E-2
1.501852344E1,2.399999946E-1,1.395999938E-1,1.358000040E-1
1.502845000E1,3.561999798E-1,1.024999991E-1,2.565999925E-1
1.503837656E1,2.642999887E-1,5.810000002E-2,1.827999949E-1
1.504830312E1,2.343999892E-1,5.480000004E-2,1.229999959E-2
1.505822969E1,1.419999897E-1,-1.009999961E-2,-1.494999975E-1
1.506815625E1,-3.199999919E-3,7.009999454E-2,-8.590000123E-2
1.507808281E1,-1.134999990E-1,8.749999851E-2,1.500000013E-3
1.508800781E1,-2.093999982E-1,1.425999999E-1,1.579999924E-2
1.509793438E1,-2.386000007E-1,2.164999992E-1,-3.359999880E-2
1.510786094E1,-2.485999912E-1,2.949999869E-1,1.393000036E-1
1.511778594E1,-2.286999971E-1,4.027999938E-1,4.589999840E-2
1.512771250E1,-1.429999918E-1,3.640999794E-1,4.979999736E-2
1.513763906E1,5.130000040E-2,4.732999802E-1,7.249999791E-2
1.514756562E1,2.401999980E-1,4.176999927E-1,1.106999964E-1
1.515749219E1,2.606000006E-1,3.515000045E-1,2.111999989E-1
1.516741875E1,2.055999935E-1,3.594999909E-1,3.324999809E-1
1.517734375E1,1.809999943E-1,3.601999879E-1,2.644000053E-1
1.518727188E1,7.349999994E-2,3.001999855E-1,5.989999697E-2
1.519719688E1,5.229999870E-2,2.797999978E-1,-2.834999859E-1
1.520712344E1,-1.134999990E-1,2.820000052E-1,-3.551000059E-1
1.521705000E1,-3.082999885E-1,3.477999866E-1,-2.602999806E-1
1.522697656E1,-2.447999865E-1,3.163000047E-1,-1.616999954E-1
1.523690313E1,-1.806999892E-1,3.678999841E-1,-8.999999613E-3
1.524682812E1,-5.209999904E-2,3.278999925E-1,1.031999961E-1
1.525675625E1,1.925999969E-1,3.405999839E-1,2.472999990E-1
1.526668281E1,3.644999862E-1,3.359999955E-1,2.838000059E-1
1.527660781E1,3.768999875E-1,3.551000059E-1,2.829000056E-1
1.528653438E1,2.944999933E-1,4.354999959E-1,1.842999905E-1
1.529646094E1,1.457999945E-1,4.404999912E-1,2.167999893E-1
1.530638594E1,-3.299999982E-2,4.220999777E-1,1.885000020E-1
1.531631250E1,-1.472999901E-1,3.847999871E-1,-2.300000051E-3
1.532623906E1,-2.030999959E-1,3.984999955E-1,-1.412999928E-1
1.533616563E1,-2.093999982E-1,4.371999800E-1,-2.727999985E-1
1.534609219E1,-2.243999988E-1,4.032999873E-1,-2.930999994E-1
1.535601875E1,-2.608000040E-1,3.409000039E-1,-2.217999995E-1
1.536594375E1,-1.485999972E-1,4.023999870E-1,-5.639999732E-2
1.537587031E1,-2.339999937E-2,4.763999879E-1,-3.059999831E-2
1.538579688E1,8.549999446E-2,4.281999767E-1,2.113999873E-1
1.539572344E1,1.450999975E-1,3.649999797E-1,3.779999912E-1
1.540565000E1,2.387999892E-1,3.432999849E-1,3.084999919E-1
1.541557656E1,1.991999894E-1,2.939999998E-1,2.428999990E-1
1.542550156E1,1.625999957E-1,2.752999961E-1,5.509999767E-2
1.543542813E1,9.359999746E-2,2.769999802E-1,-2.091999948E-1
1.544535469E1,-6.350000203E-2,2.298999876E-1,-3.412999809E-1
1.545528125E1,-1.853999943E-1,1.806999892E-1,-2.635000050E-1
1.546520781E1,-2.818000019E-1,2.498999983E-1,-7.479999959E-2
1.547513438E1,-2.784999907E-1,2.541999817E-1,1.039000005E-1
1.548506094E1,-1.988999993E-1,3.219999969E-1,1.221999973E-1
1.549498750E1,-6.599999964E-2,3.348000050E-1,9.549999982E-2
1.550491250E1,1.291999966E-1,2.872000039E-1,-4.140000045E-2
1.551483906E1,1.850000024E-1,2.973999977E-1,-1.299999934E-2
1.552476562E1,2.818000019E-1,2.771999836E-1,4.600000009E-2
1.553469219E1,1.768999994E-1,3.077999949E-1,1.109999940E-1
1.554461875E1,4.389999807E-2,3.407999873E-1,2.105000019E-1
1.555454531E1,2.029999904E-2,3.859999776E-1,1.909999996E-1
1.556447031E1,-2.159999870E-2,3.321000040E-1,9.749999642E-2
1.557439688E1,-1.030999944E-1,3.841999769E-1,6.359999627E-2
1.558432344E1,-1.798999906E-1,3.068999946E-1,1.399999950E-3
1.559425000E1,-2.098999918E-1,3.438999951E-1,-5.839999765E-2
1.560417656E1,-1.299999952E-1,2.328999937E-1,-6.459999830E-2
1.561410313E1,2.359999903E-2,1.898999959E-1,-1.254999936E-1
1.562402969E1,1.573999971E-1,1.356000006E-1,-1.568999887E-1
1.563395469E1,2.293999940E-1,8.969999850E-2,-2.307999879E-1
1.564388125E1,1.303000003E-1,6.619999558E-2,-1.058999971E-1
1.565380781E1,7.789999992E-2,9.329999983E-2,-2.169999853E-2
1.566373438E1,3.500000015E-2,7.419999689E-2,1.222999990E-1
1.567366094E1,2.510000020E-2,4.649999738E-2,1.412999928E-1
1.568358750E1,2.929999866E-2,1.096000001E-1,1.677999943E-1
1.569351250E1,3.390000015E-2,1.543999910E-1,1.876000017E-1
1.570343906E1,6.979999691E-2,1.414999962E-1,1.542000026E-1
1.571336563E1,1.039000005E-1,1.277000010E-1,1.146999970E-1
1.572329219E1,7.419999689E-2,2.419999987E-1,1.210999936E-1
1.573321875E1,-3.989999741E-2,3.247999847E-1,8.659999818E-2
1.574314531E1,-1.762000024E-1,4.257999957E-1,1.339000016E-1
1.575307188E1,-2.689999938E-1,4.438000023E-1,-7.400000002E-3
1.576299688E1,-2.457999885E-1,5.462999940E-1,-1.482999921E-1
1.577292344E1,-1.298999935E-1,5.493000150E-1,-1.811999977E-1
1.578285000E1,-7.400000002E-3,5.227999687E-1,-1.799999923E-1
1.579277656E1,7.970000058E-2,5.171999931E-1,1.899999916E-3
1.580270312E1,1.062999964E-1,5.142999887E-1,8.940000087E-2
1.581262969E1,9.290000051E-2,4.363999963E-1,1.395999938E-1
1.582255625E1,5.370000005E-2,4.675000012E-1,8.879999816E-2
1.583248125E1,3.359999880E-2,5.388999581E-1,4.589999840E-2
1.584240781E1,4.059999809E-2,4.711999893E-1,1.630000025E-2
1.585233438E1,-1.209999993E-2,5.080999732E-1,-1.188999936E-1
1.586226094E1,-9.999999776E-3,5.751000047E-1,2.099999972E-2
1.587218750E1,-9.999999747E-5,5.058000088E-1,6.819999963E-2
1.588211406E1,1.048000008E-1,4.957999885E-1,6.529999524E-2
1.589204063E1,9.629999846E-2,5.659999847E-1,1.657999903E-1
1.590196562E1,1.083000004E-1,5.324999690E-1,1.957999915E-1
1.591189219E1,9.459999949E-2,4.607999921E-1,2.431999892E-1
1.592181875E1,6.149999797E-2,4.779999852E-1,2.132999897E-1
1.593174531E1,-7.649999857E-2,4.352999926E-1,1.255999953E-1
1.594167188E1,-1.454000026E-1,4.271000028E-1,-2.539999969E-2
1.595159844E1,-2.654999793E-1,3.916999996E-1,-2.450999916E-1
1.596152344E1,-3.416000009E-1,3.215000033E-1,-3.515000045E-1
1.597145000E1,-3.296000063E-1,3.008999825E-1,-3.367999792E-1
1.598137656E1,-2.708999813E-1,2.444999963E-1,-2.524999976E-1
1.599130156E1,-8.779999614E-2,1.133999974E-1,-1.554999948E-1
1.600122812E1,8.159999549E-2,1.216999963E-1,-4.559999704E-2
1.601115469E1,1.166999936E-1,9.209999442E-2,1.509999931E-1
1.602108125E1,2.980999947E-1,5.249999836E-2,3.070999980E-1
1.603100781E1,4.026999772E-1,2.290000021E-2,1.842999905E-1
1.604093281E1,4.236999750E-1,6.729999930E-2,2.536000013E-1
1.605085938E1,3.761999905E-1,1.185999960E-1,2.926999927E-1
1.606078594E1,2.257999927E-1,2.022999972E-1,2.572999895E-1
1.607071250E1,1.098999977E-1,2.739999890E-1,2.119999975E-1
1.608063906E1,-4.140000045E-2,2.851999998E-1,9.549999982E-2
1.609056562E1,-1.888999939E-1,3.273999989E-1,5.200000014E-3
1.610049219E1,-2.703999877E-1,3.297999799E-1,-1.591999978E-1
1.611041875E1,-3.403999805E-1,3.201999962E-1,-1.202999949E-1
1.612034531E1,-3.730999827E-1,2.558999956E-1,-3.588999808E-1
1.613027031E1,-2.933000028E-1,1.856999993E-1,-2.800000012E-1
1.614019688E1,-1.844999939E-1,2.082999945E-1,-1.451999992E-1
1.615012344E1,-5.689999834E-2,2.443999946E-1,-9.099999815E-2
1.616005000E1,-2.180000022E-2,1.138999984E-1,-4.179999977E-2
1.616997656E1,8.129999787E-2,6.439999491E-2,1.519999932E-2
1.617990156E1,2.491999865E-1,1.423999965E-1,1.409000009E-1
1.618982813E1,3.044999838E-1,-7.239999622E-2,2.053999901E-1
1.619975469E1,3.745999932E-1,-3.999999911E-2,1.772999913E-1
1.620968125E1,3.278999925E-1,-4.999999888E-3,6.439999491E-2
1.621960781E1,2.633000016E-1,3.499999875E-3,5.029999837E-2
1.622953438E1,5.249999836E-2,-2.999999851E-4,8.999999613E-3
1.623946094E1,-3.039999865E-2,9.059999883E-2,5.499999970E-3
1.624938594E1,-1.119999960E-2,1.303000003E-1,1.899999916E-3
1.625931250E1,7.079999894E-2,1.517999917E-1,3.759999946E-2
1.626923906E1,1.298999935E-1,2.125999928E-1,9.799999744E-2
1.627916562E1,3.700000001E-3,2.854999900E-1,1.899999976E-1
1.628909219E1,-1.996999979E-1,3.698000014E-1,3.030000031E-1
1.629901875E1,-3.576999903E-1,4.821999967E-1,2.360000014E-1
1.630894375E1,-4.032000005E-1,5.701000094E-1,2.630000003E-2
1.631887031E1,-3.070999980E-1,5.627999902E-1,-2.963999808E-1
1.632879688E1,-2.460999936E-1,5.518999696E-1,-4.149999917E-1
1.633872344E1,-2.040999979E-1,5.202999711E-1,-3.606999815E-1
1.634865000E1,-1.836999953E-1,4.621999860E-1,-2.287999988E-1
1.635857812E1,-1.036999971E-1,4.395999908E-1,1.163999960E-1
1.636850312E1,-1.719999872E-2,5.001999736E-1,2.576999962E-1
1.637842813E1,1.846999973E-1,4.229999781E-1,1.762999892E-1
1.638835469E1,3.585999906E-1,3.544999957E-1,7.310000062E-2
1.639828125E1,4.341999888E-1,3.643999994E-1,-3.570000082E-2
1.640820781E1,4.059999883E-1,1.800999939E-1,1.114999950E-1
1.641813438E1,3.016999960E-1,2.140000015E-1,1.555999964E-1
1.642806094E1,2.409999967E-1,2.619000077E-1,1.963000000E-1
1.643798750E1,4.690000042E-2,2.741000056E-1,3.298999965E-1
1.644791250E1,-1.929999888E-2,2.764999866E-1,2.081999928E-1
1.645783906E1,-1.199999973E-1,3.696999848E-1,8.199999481E-2
1.646776563E1,-1.991999894E-1,3.674999774E-1,-1.292999983E-1
1.647769219E1,-2.648999989E-1,4.354999959E-1,-3.155999780E-1
1.648761875E1,-3.731999993E-1,4.496999979E-1,-2.985000014E-1
1.649754531E1,-4.245999753E-1,4.493999779E-1,-8.020000160E-2
1.650747188E1,-3.456999958E-1,5.439999700E-1,1.101999953E-1
1.651739688E1,-2.933000028E-1,5.360999703E-1,1.255999953E-1
1.652732344E1,-6.359999627E-2,4.801999927E-1,-4.829999804E-2
1.653725000E1,1.439999938E-1,3.431999981E-1,-1.462000012E-1
1.654717656E1,3.452999890E-1,2.494999915E-1,-1.546999961E-1
1.655710312E1,4.372999966E-1,1.649999917E-1,1.939999871E-2
1.656702969E1,4.148999751E-1,9.429999441E-2,2.362999916E-1
1.657695469E1,3.343999982E-1,7.949999720E-2,2.549000084E-1
1.658688125E1,2.205999941E-1,1.281999946E-1,1.833999902E-1
1.659680781E1,8.009999990E-2,1.087999940E-1,6.140000001E-2
1.660673438E1,-1.539999992E-2,1.612999886E-1,-1.502999961E-1
1.661666094E1,-1.307999939E-1,1.797999889E-1,-2.599999867E-2
1.662658750E1,-1.994999945E-1,2.078999877E-1,1.542999893E-1
1.663651250E1,-1.940999925E-1,2.842999995E-1,1.331999898E-1
1.664643906E1,-7.599999662E-3,2.951000035E-1,1.625999957E-1
1.665636562E1,2.369999886E-2,3.676999807E-1,4.839999974E-2
1.666629219E1,2.379999869E-2,3.202999830E-1,-3.240000084E-2
1.667621875E1,-2.859999985E-2,3.781999946E-1,1.529999916E-2
1.668614531E1,-4.549999908E-2,4.350999892E-1,-4.949999973E-2
1.669607188E1,-4.999999702E-2,4.010999799E-1,-6.340000033E-2
1.670599844E1,-9.039999545E-2,4.833000004E-1,-1.644999981E-1
1.671592344E1,-9.559999406E-2,6.047999859E-1,-1.711999923E-1
1.672585000E1,-2.389999852E-2,4.441999793E-1,1.559999958E-2
1.673577656E1,4.429999739E-2,5.327000022E-1,2.076999992E-1
1.674570313E1,6.419999897E-2,6.067999601E-1,4.642999768E-1
1.675562969E1,2.569999918E-2,5.558999777E-1,2.988999784E-1
1.676555625E1,7.849999517E-2,5.065999627E-1,1.287999898E-1
1.677548281E1,1.083999947E-1,5.203999877E-1,-1.030000001E-1
1.678540781E1,1.281999946E-1,5.677999854E-1,-2.063999921E-1
1.679533438E1,4.479999840E-2,5.393999815E-1,-1.849000007E-1
1.680526094E1,1.480000000E-2,5.521000028E-1,-1.119999960E-1
1.681518750E1,-8.559999615E-2,4.972999990E-1,-1.640000008E-2
1.682511406E1,-1.042999998E-1,6.394000053E-1,-7.909999788E-2
1.683504062E1,-7.140000165E-2,5.598999858E-1,1.109999940E-1
1.684496719E1,-2.369999886E-2,6.024000049E-1,2.997999787E-1
1.685489219E1,-4.360000044E-2,5.295999646E-1,3.342999816E-1
1.686481875E1,-6.469999999E-2,5.480999947E-1,3.832999766E-1
1.687474531E1,-7.019999623E-2,4.982999861E-1,8.869999647E-2
1.688467188E1,2.349999920E-2,4.424999952E-1,-1.180000007E-1
1.689459844E1,8.020000160E-2,3.499999940E-1,-2.320999950E-1
1.690452500E1,1.222999990E-1,2.845999897E-1,-1.897999942E-1
1.691445000E1,8.599999547E-2,2.642000020E-1,-2.062999904E-1
1.692437656E1,7.499999553E-2,1.899999976E-1,-8.029999584E-2
1.693430312E1,1.819999889E-2,1.982000023E-1,6.879999489E-2
1.694422969E1,-2.119999938E-2,1.984999925E-1,8.679999411E-2
1.695415625E1,-1.199999973E-1,2.396999896E-1,2.149000019E-1
1.696408281E1,-1.305000037E-1,2.920999825E-1,1.010999978E-1
1.697400781E1,-1.238999963E-1,2.730000019E-1,-7.970000058E-2
1.698393594E1,-1.608999968E-1,2.707999945E-1,-1.500999928E-1
1.699386094E1,-5.639999732E-2,1.598999947E-1,-1.833999902E-1
1.700378750E1,-4.140000045E-2,1.651999950E-1,-9.820000082E-2
1.701371406E1,4.679999873E-2,1.622999907E-1,1.279999968E-2
1.702364063E1,9.429999441E-2,1.907999963E-1,5.689999834E-2
1.703356562E1,6.960000098E-2,1.022999957E-1,2.769999951E-2
1.704349219E1,1.389999986E-1,1.234999970E-1,9.269999713E-2
1.705341875E1,1.419000030E-1,9.769999981E-2,1.713999957E-1
1.706334531E1,1.545999944E-1,1.308999956E-1,1.325999945E-1
1.707327188E1,2.184000015E-1,1.640999913E-1,5.829999968E-2
1.708319844E1,1.765999943E-1,1.105999947E-1,1.789999940E-2
1.709312500E1,5.419999734E-2,1.847999990E-1,1.158000007E-1
1.710305156E1,2.999999933E-2,1.694999933E-1,1.331000030E-1
1.711297656E1,9.499999695E-3,2.019999921E-1,7.189999521E-2
1.712290312E1,2.410000004E-2,2.646999955E-1,8.999999613E-2
1.713282969E1,-9.999999776E-3,2.687999904E-1,9.799999744E-2
1.714275625E1,-6.469999999E-2,2.599000037E-1,4.270000011E-2
1.715268125E1,-1.413999945E-1,3.052999973E-1,-7.329999655E-2
1.716260781E1,-1.378999949E-1,3.797999918E-1,-9.849999845E-2
1.717253438E1,-1.298999935E-1,3.346999884E-1,-1.127000004E-1
1.718246094E1,-1.595999897E-1,3.274999857E-1,-9.640000015E-2
1.719238750E1,-9.499999881E-2,2.626999915E-1,-7.889999449E-2
1.720231406E1,-9.269999713E-2,2.884999812E-1,-6.279999763E-2
1.721224062E1,-2.719999850E-2,2.841999829E-1,-1.463999897E-1
1.722216719E1,-7.360000163E-2,3.703999817E-1,-1.349999942E-2
1.723209219E1,-4.479999840E-2,3.391999900E-1,-1.219999976E-2
1.724201875E1,-1.009999961E-2,3.964999914E-1,-2.149999887E-2
1.725194531E1,-5.989999697E-2,3.569999933E-1,6.520000100E-2
1.726187188E1,-3.549999744E-2,3.410999775E-1,2.193000019E-1
1.727179844E1,-2.789999917E-2,3.538999856E-1,1.915999949E-1
1.728172344E1,1.317999959E-1,3.564999998E-1,1.072999984E-1
1.729165000E1,3.386999965E-1,2.912999988E-1,5.299999937E-2
1.730157656E1,3.583000004E-1,2.373999953E-1,8.460000157E-2
1.731150312E1,2.321999967E-1,2.119999975E-1,1.166999936E-1
1.732142969E1,1.862999946E-1,2.101999968E-1,1.964000016E-1
1.733135625E1,5.639999732E-2,2.186999917E-1,1.328999996E-1
1.734128281E1,-4.250000045E-2,1.543999910E-1,-3.999999899E-4
1.735120938E1,-1.301999986E-1,1.746999919E-1,-1.599999960E-3
1.736113438E1,-2.273999900E-1,2.610000074E-1,-1.679999940E-2
1.737106094E1,-3.948999941E-1,2.820999920E-1,-8.379999548E-2
1.738098750E1,-4.160999954E-1,2.603999972E-1,-3.136000037E-1
1.739091406E1,-3.847999871E-1,2.113000005E-1,-4.178999960E-1
1.740084062E1,-2.215999961E-1,1.941999942E-1,-4.016999900E-1
1.741076562E1,2.769999951E-2,1.799999923E-1,-2.331999987E-1
1.742069219E1,7.689999789E-2,1.480000019E-1,6.899999920E-3
1.743061875E1,3.059999943E-1,1.941999942E-1,1.571999937E-1
1.744054688E1,3.143000007E-1,1.437999904E-1,3.070999980E-1
1.745047188E1,3.227999806E-1,1.359999925E-1,2.595999837E-1
1.746039688E1,2.996000051E-1,1.626999974E-1,2.972999811E-1
1.747032500E1,1.709999889E-1,2.120999992E-1,2.399999946E-1
1.748025000E1,9.820000082E-2,2.116999924E-1,1.228000000E-1
1.749017656E1,-2.979999967E-2,2.179999948E-1,9.189999849E-2
1.750010313E1,-1.645999998E-1,3.085999787E-1,-2.699999837E-3
1.751002969E1,-2.777000070E-1,3.519999981E-1,-1.621000022E-1
1.751995625E1,-2.170999944E-1,3.147999942E-1,-2.160999924E-1
1.752988125E1,-1.096999943E-1,2.689000070E-1,-1.785999984E-1
1.753980781E1,-7.599999662E-3,2.247999907E-1,-4.910000041E-2
1.754973438E1,1.036999971E-1,2.434999943E-1,1.911000013E-1
1.755966094E1,7.889999449E-2,2.266999930E-1,2.538999915E-1
1.756958750E1,8.999999845E-4,2.101999968E-1,8.129999787E-2
1.757951406E1,3.289999813E-2,2.133999914E-1,-1.040000003E-2
1.758944062E1,-3.350000083E-2,2.653999925E-1,-8.799999952E-3
1.759936562E1,-6.149999797E-2,2.439999878E-1,-6.650000066E-2
1.760929219E1,-1.193000004E-1,2.300999910E-1,-7.989999652E-2
1.761921875E1,-1.615999937E-1,2.570999861E-1,-6.449999660E-2
1.762914531E1,-4.899999872E-2,2.373999953E-1,3.959999979E-2
1.763907188E1,8.599999547E-2,3.334999979E-1,-1.709999889E-2
1.764899844E1,2.182999998E-1,2.249999940E-1,3.739999980E-2
1.765892500E1,2.594999969E-1,1.667999923E-1,4.479999840E-2
1.766885156E1,2.366999984E-1,2.384999990E-1,1.004999951E-1
1.767877656E1,1.626999974E-1,2.038999945E-1,1.894999892E-1
1.768870312E1,5.200000014E-3,2.892999947E-1,1.967999935E-1
1.769862969E1,-1.468999982E-1,3.810999990E-1,8.269999921E-2
1.770855625E1,-2.610999942E-1,4.588999748E-1,-6.719999760E-2
1.771848281E1,-2.854000032E-1,4.934999943E-1,-1.902000010E-1
1.772840938E1,-2.805999815E-1,4.490000010E-1,-1.242999956E-1
1.773833438E1,-2.786999941E-1,3.488000035E-1,4.710000008E-2
1.774826094E1,-7.499999553E-2,4.772999883E-1,1.737999916E-1
1.775818750E1,9.499999695E-3,3.712999821E-1,1.144999936E-1
1.776811406E1,1.263999939E-1,2.743999958E-1,-3.879999742E-2
1.777804219E1,2.037999928E-1,2.707000077E-1,-2.506999969E-1
1.778796719E1,1.423999965E-1,2.258999944E-1,-2.075999975E-1
1.779789219E1,6.819999963E-2,2.204999924E-1,-1.151999980E-1
1.780781875E1,-1.879999973E-2,2.451999933E-1,-1.030999944E-1
1.781774531E1,-4.199999943E-2,3.010999858E-1,-5.359999835E-2
1.782767188E1,8.999999845E-4,2.624000013E-1,1.096000001E-1
1.783759844E1,4.999999655E-4,3.527999818E-1,2.356999964E-1
1.784752500E1,8.509999514E-2,3.164999783E-1,2.504000068E-1
1.785745000E1,1.254999936E-1,4.101999998E-1,2.595999837E-1
1.786737656E1,2.360000014E-1,2.921999991E-1,2.900999784E-1
1.787730312E1,1.286000013E-1,3.818999827E-1,3.167999983E-1
1.788722969E1,5.200000014E-3,4.482999742E-1,1.252999902E-1
1.789715625E1,3.489999846E-2,4.930000007E-1,2.850000001E-2
1.790708281E1,-1.322999895E-1,3.956999779E-1,-8.949999511E-2
1.791700938E1,-1.106999964E-1,4.179999828E-1,-2.320999950E-1
1.792693594E1,-1.169999987E-1,3.673999906E-1,-2.599999905E-1
1.793686094E1,-1.111999974E-1,3.795000017E-1,-1.395999938E-1
1.794678906E1,-6.069999933E-2,3.944000006E-1,1.329999976E-2
1.795671406E1,-1.840000041E-2,3.828999996E-1,1.379999965E-1
1.796664062E1,-3.309999779E-2,4.027999938E-1,8.529999852E-2
1.797656719E1,3.539999947E-2,3.925999999E-1,-1.045999974E-1
1.798649375E1,2.789999917E-2,4.014999866E-1,-1.008999944E-1
1.799641875E1,-2.109999955E-2,4.493999779E-1,-2.259999886E-2
1.800634531E1,2.209999971E-2,4.290999770E-1,1.342999935E-1
1.801627188E1,1.689999923E-2,4.393000007E-1,1.665000021E-1
1.802619844E1,6.999999750E-3,4.926999807E-1,2.259999961E-1
1.803612500E1,1.489999983E-2,4.976999760E-1,1.642999947E-1
1.804605156E1,1.159999985E-2,4.712999761E-1,7.699999958E-3
1.805597656E1,-1.030999944E-1,4.406999946E-1,-1.146999970E-1
1.806590313E1,-1.105000004E-1,4.394999743E-1,-7.660000026E-2
1.807582969E1,-1.756999940E-1,4.761999846E-1,-2.599999867E-2
1.808575625E1,-1.607999951E-1,4.347999990E-1,8.100000210E-3
1.809568281E1,-1.185999960E-1,3.754999936E-1,-9.999999776E-3
1.810560938E1,-6.579999626E-2,4.745000005E-1,3.999999724E-3
1.811553594E1,-6.599999964E-3,4.842999876E-1,-1.960000023E-2
1.812546094E1,1.040999964E-1,4.337999821E-1,4.600000102E-3
1.813538750E1,1.335999966E-1,3.931999803E-1,4.889999703E-2
1.814531406E1,1.520999968E-1,3.431999981E-1,6.059999764E-2
1.815524062E1,1.495999992E-1,3.346999884E-1,1.960999966E-1
1.816516719E1,1.075999960E-1,2.991999984E-1,2.100999951E-1
1.817509375E1,1.473999918E-1,2.436999977E-1,8.359999955E-2
1.818502031E1,8.419999480E-2,2.159999907E-1,-4.389999807E-2
1.819494531E1,6.399999838E-3,2.470999956E-1,-4.299999774E-2
1.820487188E1,-1.116999984E-1,2.149000019E-1,-1.068999991E-1
1.821479844E1,-2.069000006E-1,2.097999901E-1,-1.278000027E-1
1.822472500E1,-3.014000058E-1,2.144999951E-1,-1.850999892E-1
1.823465156E1,-8.309999853E-2,1.808999926E-1,-2.363999933E-1
1.824457812E1,1.045999974E-1,1.777999997E-1,-7.569999993E-2
1.825450469E1,1.576000005E-1,2.177999914E-1,2.698999941E-1
1.826442969E1,3.693999946E-1,1.324999928E-1,4.160999954E-1
1.827435625E1,2.148000002E-1,1.609999985E-1,4.676999748E-1
1.828428281E1,1.659999937E-1,1.843999922E-1,2.498999983E-1
1.829420938E1,1.131999940E-1,2.368000001E-1,3.819999844E-2
1.830413594E1,2.699999837E-3,2.313999981E-1,-1.260000020E-1
1.831406094E1,-1.482999921E-1,3.161000013E-1,-1.297999918E-1
1.832398750E1,-2.689000070E-1,3.647999763E-1,-1.766999960E-1
1.833391406E1,-3.738999963E-1,3.430999815E-1,-2.723999918E-1
1.834384063E1,-4.140999913E-1,3.157999814E-1,-1.862999946E-1
1.835376719E1,-2.422999889E-1,2.339999974E-1,-1.711999923E-1
1.836369375E1,-1.576000005E-1,2.430999875E-1,-6.830000132E-2
1.837362031E1,6.549999863E-2,1.939999908E-1,1.119999960E-2
1.838354688E1,2.204999924E-1,1.441999972E-1,5.869999900E-2
1.839347188E1,3.872999847E-1,1.017999947E-1,1.001999974E-1
1.840339844E1,2.958000004E-1,9.169999510E-2,1.389999986E-1
1.841332500E1,2.766000032E-1,7.409999520E-2,1.480000019E-1
1.842325156E1,2.942000031E-1,1.479000002E-1,1.347000003E-1
1.843317812E1,1.940999925E-1,1.757999957E-1,1.933999956E-1
1.844310469E1,1.150000002E-2,2.447999865E-1,3.251000047E-1
1.845302969E1,-1.766999960E-1,3.509999812E-1,2.316000015E-1
1.846295625E1,-2.619000077E-1,4.553999901E-1,1.781999916E-1
1.847288281E1,-2.002999932E-1,5.543999672E-1,-5.999999866E-2
1.848280938E1,-2.795000076E-1,6.276999712E-1,-2.237999886E-1
1.849273594E1,-3.057999909E-1,5.109999776E-1,-2.280000001E-1
1.850266094E1,-3.209999800E-1,5.335000157E-1,-1.835999936E-1
1.851258750E1,-2.466999888E-1,4.685999751E-1,-1.568999887E-1
1.852251406E1,-1.938999891E-1,4.765999913E-1,-1.592999995E-1
1.853244062E1,-5.629999936E-2,4.169999957E-1,-1.476999968E-1
1.854236719E1,-2.899999963E-3,3.172000051E-1,-1.648000032E-1
1.855229219E1,9.959999472E-2,1.864999980E-1,-7.989999652E-2
1.856221875E1,2.022999972E-1,2.117999941E-1,-5.999999703E-4
1.857214531E1,2.999999821E-1,2.071999907E-1,9.769999981E-2
1.858207188E1,3.382000029E-1,1.260000020E-1,2.027999908E-1
1.859199844E1,3.615999818E-1,4.779999703E-2,2.043000013E-1
1.860192500E1,2.678000033E-1,9.059999883E-2,1.636999995E-1
1.861185000E1,2.554999888E-1,4.809999838E-2,1.141999960E-1
1.862177656E1,1.937000006E-1,1.156999990E-1,1.574999988E-1
1.863170312E1,1.777999997E-1,1.757999957E-1,2.771999836E-1
1.864162969E1,1.363999993E-1,2.884999812E-1,4.366999865E-1
1.865155625E1,7.050000131E-2,3.675999939E-1,5.091999769E-1
1.866148281E1,-1.310000010E-2,3.756999969E-1,2.741000056E-1
1.867140938E1,-5.659999698E-2,4.611999989E-1,-1.081999987E-1
1.868133438E1,-2.256999910E-1,4.548999965E-1,-2.942999899E-1
1.869126094E1,-4.245999753E-1,5.054999590E-1,-3.154999912E-1
1.870118750E1,-6.098999977E-1,5.012999773E-1,-2.689000070E-1
1.871111562E1,-5.195999742E-1,5.464000106E-1,-4.059999809E-2
1.872104062E1,-3.835999966E-1,5.135999918E-1,-4.490000010E-2
1.873096875E1,-2.120999992E-1,4.056999981E-1,-2.001999915E-1
1.874089375E1,-2.169999853E-2,3.555999994E-1,-2.691999972E-1
1.875082031E1,1.013000011E-1,3.420999944E-1,-1.859999895E-1
1.876074688E1,2.417999953E-1,2.962999940E-1,-3.079999983E-2
1.877067188E1,3.583000004E-1,2.500000000E-1,1.005999967E-1
1.878060000E1,3.544999957E-1,1.870999932E-1,1.523000002E-1
1.879052500E1,3.061999977E-1,1.385999918E-1,1.738999933E-1
1.880045156E1,2.270999998E-1,1.419999897E-1,1.089999974E-1
1.881037812E1,1.092000008E-1,1.277000010E-1,1.301999986E-1
1.882030313E1,1.549999975E-2,1.404999942E-1,1.999999862E-3
1.883023125E1,3.729999810E-2,1.321000010E-1,-5.350000039E-2
1.884015625E1,2.989999950E-2,1.809999943E-1,-3.370000049E-2
1.885008281E1,-1.074000001E-1,2.195999920E-1,3.179999813E-2
1.886000938E1,-1.350999922E-1,2.293999940E-1,1.726000011E-1
1.886993594E1,-1.491999924E-1,2.610999942E-1,1.850999892E-1
1.887986250E1,-1.166999936E-1,3.206999898E-1,3.999999724E-3
1.888978750E1,-6.920000166E-2,3.129999936E-1,3.639999777E-2
1.889971406E1,1.249999925E-2,3.432999849E-1,-3.379999846E-2
1.890964062E1,8.529999852E-2,2.951999903E-1,1.105999947E-1
1.891956719E1,9.989999980E-2,3.437999785E-1,7.829999924E-2
1.892949375E1,6.949999928E-2,2.773000002E-1,4.509999976E-2
1.893942031E1,-1.200000010E-2,3.270999789E-1,2.789999917E-2
1.894934688E1,-1.105000004E-1,2.979999781E-1,-5.499999970E-2
1.895927344E1,-9.369999915E-2,2.951000035E-1,-5.229999870E-2
1.896920000E1,-5.959999934E-2,2.741999924E-1,1.069999952E-2
1.897912656E1,2.199999988E-2,2.437999994E-1,2.349999920E-2
1.898905156E1,6.499999762E-2,1.856999993E-1,1.119999960E-1
1.899897812E1,1.976999938E-1,1.961999983E-1,1.659999974E-2
1.900890469E1,2.287999988E-1,1.984999925E-1,2.740000002E-2
1.901883125E1,1.753000021E-1,1.803999990E-1,-2.099999972E-2
1.902875625E1,1.719999872E-2,2.008000016E-1,-4.339999706E-2
1.903868281E1,-1.193999946E-1,2.196999937E-1,3.109999932E-2
1.904860938E1,-2.357999980E-1,2.870000005E-1,3.039999865E-2
1.905853594E1,-2.352999896E-1,3.619999886E-1,-2.659999952E-2
1.906846250E1,-2.044999897E-1,3.380999863E-1,-1.491999924E-1
1.907838906E1,-8.529999852E-2,3.434000015E-1,-2.298000008E-1
1.908831562E1,-1.392000020E-1,3.603999913E-1,-4.939999804E-2
1.909824219E1,-7.249999791E-2,3.804000020E-1,2.006999999E-1
1.910816875E1,1.269999985E-2,4.409999847E-1,2.538000047E-1
1.911809375E1,5.379999802E-2,4.253999889E-1,2.282999903E-1
1.912802031E1,1.564999968E-1,4.217999876E-1,1.354999989E-1
1.913794688E1,1.374000013E-1,3.660999835E-1,-2.109999955E-2
1.914787344E1,4.329999909E-2,3.436999917E-1,-1.665000021E-1
1.915780000E1,-4.499999806E-3,3.869999945E-1,-2.474000007E-1
1.916772656E1,-1.894999892E-1,2.845999897E-1,-9.319999814E-2
1.917765156E1,-1.437999904E-1,2.707000077E-1,-5.049999803E-2
1.918757969E1,-1.141999960E-1,2.773000002E-1,-9.299999475E-2
1.919750469E1,-1.719999872E-2,3.158999979E-1,1.179999951E-2
1.920743125E1,1.515000015E-1,2.970999777E-1,6.269999593E-2
1.921735625E1,2.476999909E-1,2.872000039E-1,1.418000013E-1
1.922728281E1,2.563000023E-1,2.897000015E-1,2.595999837E-1
1.923720938E1,2.637999952E-1,2.386000007E-1,3.278000057E-1
1.924713594E1,2.741000056E-1,3.576000035E-1,2.972999811E-1
1.925706250E1,9.879999608E-2,3.210999966E-1,2.391999960E-1
1.926698906E1,-6.689999998E-2,2.904999852E-1,6.149999797E-2
1.927691562E1,-9.959999472E-2,3.814999759E-1,-6.179999933E-2
1.928684062E1,-1.965999901E-1,4.269999862E-1,-7.339999825E-2
1.929676719E1,-2.294999957E-1,4.984999895E-1,-7.909999788E-2
1.930669375E1,-3.166999817E-1,4.527999759E-1,-5.999999703E-4
1.931662031E1,-2.863999903E-1,4.861999750E-1,-1.119999960E-1
1.932654688E1,-3.009999990E-1,4.711999893E-1,-2.418999970E-1
1.933647344E1,-2.260999978E-1,3.711999953E-1,-1.319999993E-1
1.934639844E1,-1.435000002E-1,3.607999980E-1,-1.032999977E-1
1.935632500E1,-1.929999888E-2,3.792999983E-1,5.829999968E-2
1.936625156E1,1.362999976E-1,4.077000022E-1,9.409999847E-2
1.937617813E1,2.874999940E-1,3.355000019E-1,-7.440000027E-2
1.938610469E1,4.011999965E-1,2.234999985E-1,1.999999955E-2
1.939603125E1,4.151999950E-1,1.932999939E-1,1.273999959E-1
1.940595781E1,3.199999928E-1,1.068999991E-1,1.467999965E-1
1.941588438E1,2.465999871E-1,1.623999923E-1,2.474000007E-1
1.942580938E1,1.366999894E-1,1.946999878E-1,2.838000059E-1
1.943573594E1,1.860000007E-2,2.450999916E-1,2.003999949E-1
1.944566250E1,-8.289999515E-2,2.408999950E-1,6.309999526E-2
1.945558906E1,-1.573999971E-1,2.379999906E-1,-2.454999983E-1
1.946551563E1,-2.016000003E-1,3.010999858E-1,-1.366999894E-1
1.947544219E1,-2.527000010E-1,3.534999788E-1,1.939999871E-2
1.948536719E1,-2.615999877E-1,3.898999989E-1,1.960999966E-1
1.949529375E1,-1.624999940E-1,4.158999920E-1,3.329999745E-2
1.950522031E1,-2.169999853E-2,4.454999864E-1,-1.137999967E-1
1.951514688E1,3.329999745E-2,5.018999577E-1,-1.785999984E-1
1.952507344E1,1.489999983E-2,4.793999791E-1,-6.069999933E-2
1.953500000E1,-6.199999712E-3,4.554999769E-1,6.480000168E-2
1.954492500E1,-3.329999745E-2,4.223999977E-1,-6.700000167E-2
1.955485156E1,-8.109999448E-2,3.414999843E-1,-1.132999957E-1
1.956477812E1,-1.035999954E-1,2.712999880E-1,-1.467999965E-1
1.957470469E1,-1.519999951E-1,3.077999949E-1,-1.668999940E-1
1.958463125E1,-6.459999830E-2,3.343999982E-1,-8.460000157E-2
1.959455781E1,7.319999486E-2,2.247999907E-1,-6.219999865E-2
1.960448438E1,2.043000013E-1,2.032999992E-1,-3.199999919E-3
1.961440938E1,3.068999946E-1,1.544999927E-1,2.736999989E-1
1.962433594E1,3.375999928E-1,6.019999832E-2,3.741999865E-1
1.963426250E1,3.044999838E-1,5.839999765E-2,3.305999935E-1
1.964418906E1,2.249999940E-1,9.999999311E-4,1.629000008E-1
1.965411563E1,1.194999963E-1,8.150000125E-2,1.150000002E-2
1.966404063E1,-8.280000091E-2,8.779999614E-2,4.399999976E-2
1.967396719E1,-2.255999893E-1,1.583999991E-1,1.338000000E-1
1.968389375E1,-2.471999973E-1,2.046999931E-1,3.379999846E-2
1.969382031E1,-2.453999966E-1,2.687000036E-1,-7.779999822E-2
1.970374688E1,-2.157000005E-1,2.937999964E-1,-1.511999965E-1
1.971367344E1,-2.003999949E-1,2.811000049E-1,-5.439999700E-2
1.972359844E1,-6.689999998E-2,3.255999982E-1,-2.569999918E-2
1.973352500E1,1.048999950E-1,3.522999883E-1,2.060000040E-2
1.974345156E1,2.255999893E-1,3.236999810E-1,1.340000033E-1
1.975337812E1,1.783999950E-1,3.191999793E-1,2.430000007E-1
1.976330469E1,8.689999580E-2,4.535000026E-1,2.863999903E-1
1.977323125E1,-5.849999934E-2,4.111000001E-1,1.419000030E-1
1.978315625E1,-7.389999926E-2,4.025999904E-1,-1.450999975E-1
1.979308438E1,-1.523000002E-1,4.145999849E-1,-3.944999874E-1
1.980300938E1,-2.043999881E-1,3.632999957E-1,-4.219999909E-1
1.981293594E1,-2.750000060E-1,3.425000012E-1,-2.933000028E-1
1.982286250E1,-2.453999966E-1,4.140999913E-1,-1.620000005E-1
1.983278906E1,-1.336999983E-1,4.612999856E-1,-6.159999967E-2
1.984271406E1,-6.619999558E-2,4.332000017E-1,4.120000079E-2
